Current (A),Battery Voltage (V),Accel X (m_s2),Accel Y (m_s2),Accel Z (m_s2),Gyro H (deg),Gyro R (deg),Gyro P (deg),Latitude,Longitude,GPS Status
8.3,19.38,-0.81,-0.08,9.56,0.0,2035.19,-0.31,20.7369,-103.4546,A
8.27,19.44,326.85,-0.06,9.57,0.0,2043.19,-0.31,20.7369,-103.4546,A
8.36,19.22,-0.8,-0.05,9.59,0.0,-4.81,-0.31,20.7369,-103.4546,A
8.3,19.31,-0.79,-0.05,9.58,0.0,-4.81,-0.31,20.7369,-103.4546,A
8.28,19.39,326.87,-0.04,9.58,0.0,-4.81,-0.31,20.7369,-103.4546,A
8.28,19.19,-0.82,-0.06,9.59,0.0,-12.81,-0.31,20.7369,-103.4546,A
8.35,19.38,-0.82,-0.07,9.58,0.0,-4.81,-0.31,20.7369,-103.4546,A
8.28,19.41,-0.79,-0.07,9.57,0.0,-4.81,-0.31,20.7369,-103.4546,A
8.32,19.22,326.89,-0.07,9.59,0.0,-4.81,-0.31,20.7369,-103.4546,A
8.33,19.33,-0.79,-0.07,9.56,0.0,2035.19,-0.31,20.7369,-103.4546,A
8.24,19.41,-0.79,-0.05,9.56,0.0,-4.81,-0.31,20.7369,-103.4546,A
8.32,19.23,-0.8,-0.06,9.59,0.0,-4.81,-0.31,20.7369,-103.4546,A
8.3,19.35,326.86,-0.08,9.57,0.0,2035.19,-0.31,20.7369,-103.4546,A
8.31,19.44,-0.86,-0.05,9.57,0.0,2035.19,-0.31,20.7369,-103.4546,A
8.34,19.24,-0.82,-0.05,9.57,0.0,-4.81,-0.31,20.7369,-103.4546,A
8.26,19.3,-0.8,-0.08,9.56,0.0,-4.81,-0.31,20.7369,-103.4546,A
8.3,19.44,326.86,-0.07,9.58,0.0,-4.81,-0.31,20.7369,-103.4546,A
8.26,19.24,-0.81,-0.05,9.57,0.0,-12.81,-0.31,20.7369,-103.4546,A
8.31,19.33,-0.8,-0.08,9.58,0.0,-4.81,-0.31,20.7369,-103.4546,A
8.27,19.42,326.85,-0.08,9.57,0.0,-4.81,-0.31,20.7369,-103.4546,A
8.34,19.22,326.89,-0.07,9.58,0.0,-4.81,-0.31,20.7369,-103.4546,A
8.34,19.38,-0.79,-0.06,9.58,0.0,-4.81,-0.31,20.7369,-103.4546,A
8.25,19.38,-0.81,-0.07,9.58,0.0,-4.81,-0.31,20.7369,-103.4546,A
8.35,19.27,-0.79,-0.09,9.53,0.0,-4.81,-0.31,20.7369,-103.4546,A
8.33,19.37,-0.79,-0.07,9.55,0.0,-4.81,-0.31,20.7369,-103.4546,A
8.27,19.41,326.85,-0.07,9.58,0.0,-4.81,-0.31,20.7369,-103.4546,A
8.31,19.24,-0.8,-0.07,9.6,0.0,2035.19,-0.31,20.7369,-103.4546,X
8.28,19.38,-0.79,-0.07,9.58,0.0,-4.81,-0.31,20.7369,-103.4546,X
8.31,19.41,-0.81,-0.07,9.6,0.0,-4.81,-0.31,20.7369,-103.4546,X
8.29,19.23,-0.8,-0.07,9.56,0.0,-4.81,-0.31,20.7369,-103.4546,X
8.34,19.37,-0.79,-0.06,9.56,0.0,2035.19,-0.31,20.7369,-103.4546,X
8.3,19.44,-0.79,-0.04,9.54,0.0,-4.81,-0.31,20.7369,-103.4546,X
8.28,19.22,-0.79,-0.05,9.58,0.0,-4.81,-0.31,20.7369,-103.4546,X
8.32,19.37,326.9,-0.06,9.56,0.0,-4.81,-0.31,20.7369,-103.4546,X
8.27,19.5,-0.8,-0.05,9.6,0.0,2043.19,-0.31,20.7369,-103.4546,X
8.36,19.3,-0.79,-0.08,9.57,0.0,2043.19,-0.31,20.7369,-103.4546,X
8.3,19.34,-0.8,-0.06,9.58,0.0,-12.81,-0.31,20.7369,-103.4546,X
8.31,19.42,326.89,-0.07,9.54,0.0,-4.81,-0.31,20.7369,-103.4546,X
8.35,19.24,326.89,-0.06,9.57,0.0,2035.19,-0.31,20.7369,-103.4546,X
8.23,19.34,-0.81,-0.06,9.6,0.0,-12.81,-0.31,20.7369,-103.4546,X
8.27,19.42,326.87,-0.06,9.57,0.0,-4.81,-0.31,20.7367,0.0,A
8.26,19.31,326.87,-0.05,9.59,0.0,-4.81,-0.31,20.7367,0.0,A
8.29,19.42,-0.8,-0.08,9.57,0.0,2035.19,-0.31,20.7367,0.0,A
8.21,19.53,-0.79,-0.06,9.59,0.0,-4.81,-0.31,20.7369,10.5333,A
8.33,19.23,326.89,-0.06,9.56,0.0,-4.81,-0.31,20.7369,10.5333,A
8.34,19.39,-0.79,-0.08,9.59,0.0,2043.19,-0.31,20.7369,-103.4546,A
8.19,19.38,-0.82,-0.08,9.58,0.0,2035.19,-0.31,20.7369,-103.4546,A
8.3,19.23,-0.79,-0.07,9.57,0.0,-4.81,-0.31,20.7369,-103.4546,A
8.32,19.42,-0.78,-0.07,9.58,0.0,-4.81,-0.31,20.7369,-103.4546,A
8.3,19.46,326.89,-0.07,9.56,0.0,-4.81,-0.31,20.7369,-103.4546,A
8.31,19.26,-0.81,-0.08,9.57,0.0,2043.19,-0.31,20.7369,-103.4546,A
8.28,19.35,-0.8,-0.08,9.54,0.0,-4.81,-0.31,20.7369,-103.4546,A
8.29,19.45,-0.8,-0.07,9.58,0.0,-4.81,-0.31,20.7369,-103.4546,A
8.31,19.28,326.88,-0.07,9.55,0.0,-4.81,-0.31,20.7368,-103.4545,A
8.3,19.38,-0.81,-0.06,9.56,0.0,-4.81,-0.31,20.7368,-103.4545,A
8.3,19.5,-0.82,-0.07,9.57,0.0,2035.19,-0.31,20.7368,-103.4545,A
8.29,19.33,-0.79,-0.06,9.57,0.0,-12.81,-0.31,20.7368,-103.4545,A
8.29,19.34,-0.8,-0.06,9.55,0.0,-4.81,-0.31,20.7368,-103.4545,A
8.28,19.46,-0.8,-0.08,9.57,0.0,-4.81,-0.31,20.7368,-103.4545,A
8.33,19.28,326.89,-0.06,9.59,0.0,2035.19,-0.31,20.7368,-103.4545,A
8.31,19.35,-0.82,-0.08,9.57,0.0,-4.81,-0.31,20.7368,-103.4545,A
8.27,19.39,-0.79,-0.06,9.57,0.0,-4.81,-0.31,20.7368,-103.4545,A
8.33,19.27,326.88,-0.06,9.57,0.0,-4.81,-0.31,20.7368,-103.4545,A
8.3,19.44,326.87,-0.06,9.6,0.0,2035.19,-0.31,20.7368,-103.4545,A
8.27,19.39,-0.79,-0.06,9.57,0.0,-4.81,-0.31,20.7368,-103.4545,A
8.32,19.26,326.89,-0.07,9.58,0.0,-4.81,-0.31,20.7368,-103.4545,A
8.33,19.45,326.89,-0.07,9.59,0.0,2035.19,-0.31,20.7368,-103.4545,A
8.25,19.44,-0.79,-0.06,9.57,0.0,-4.81,-0.31,20.7368,-103.4545,A
8.25,19.27,326.86,-0.07,9.58,0.0,-4.81,-0.31,20.7368,-103.4545,A
8.33,19.39,326.9,-0.07,9.58,0.0,-4.81,-0.31,20.7368,-103.4545,A
8.25,19.46,-0.8,-0.05,9.57,0.0,-12.81,-0.31,20.7368,-103.4545,A
8.3,19.27,-0.79,-0.06,9.56,0.0,-4.81,-0.31,20.7368,-103.4545,A
8.31,19.39,-0.79,-0.06,9.57,0.0,-4.81,-0.31,20.7368,-103.4545,A
8.23,19.49,-0.78,-0.06,9.58,0.0,-4.81,-0.31,20.7368,-103.4545,A
8.3,19.26,326.88,-0.06,9.58,0.0,-4.81,-0.31,20.7368,-103.4545,A
8.24,19.34,-0.79,-0.06,9.56,0.0,2035.19,-0.31,20.7368,-103.4545,A
8.3,19.46,-0.79,-0.07,9.58,0.0,-4.81,-0.31,20.7368,-10.6212,A
8.3,19.27,-0.8,-0.08,9.58,0.0,-4.81,-0.31,20.7368,-10.6212,A
8.27,19.38,-0.79,-0.05,9.58,0.0,-4.81,-0.31,20.7368,-10.6212,A
8.27,19.46,-0.79,-0.06,9.57,0.0,2043.19,-0.31,20.7368,-103.4545,A
8.27,19.28,-0.8,-0.07,9.57,0.0,-4.81,-0.31,20.7368,-103.4545,A
8.28,19.38,326.89,-0.08,9.58,0.0,-12.81,-0.31,20.7368,-103.4545,A
8.27,19.42,-0.79,-0.07,9.57,0.0,-4.81,-0.31,20.7368,-103.4545,A
8.34,19.24,326.88,-0.08,9.57,0.0,-4.81,-0.31,20.7368,-103.4545,A
8.25,19.38,326.88,-0.07,9.57,0.0,2035.19,-0.31,20.7368,-103.4545,A
8.27,19.41,-0.81,-0.07,9.57,0.0,-12.81,-0.31,20.7368,-103.4545,A
8.33,19.27,-0.79,-0.09,9.58,0.0,-4.81,-0.31,20.7368,-103.4545,A
8.28,19.39,326.89,-0.06,9.58,0.0,-4.81,-0.31,20.7368,-103.4545,A
8.26,19.5,326.89,-0.06,9.55,0.0,-4.81,-0.31,20.7368,-103.4545,A
8.3,19.26,-0.83,-0.09,9.58,0.0,-4.81,-0.31,20.7368,-103.4545,A
8.31,19.41,-0.79,-0.08,9.55,0.0,-4.81,-0.31,20.7368,-103.4545,A
8.26,19.49,-0.81,-0.1,9.56,0.0,-4.81,-0.31,20.7368,-103.4545,A
8.27,19.3,326.89,-0.06,9.59,0.0,-4.81,-0.31,20.7368,-103.4545,A
8.31,19.41,326.88,-0.05,9.56,0.0,-4.81,-0.31,20.7368,-103.4545,A
8.28,19.48,-0.82,-0.06,9.55,0.0,2035.19,-0.31,20.7368,-103.4545,A
8.3,19.24,-0.78,-0.06,9.55,0.0,-4.81,-0.31,20.7368,-103.4545,A
8.3,19.35,326.89,-0.07,9.56,0.0,2035.19,-0.31,20.7368,-103.4545,A
8.22,19.46,-0.8,-0.09,9.59,0.0,-4.81,-0.31,20.7368,-103.4545,A
8.29,19.24,-0.83,-0.06,9.57,0.0,-4.81,-0.31,20.7368,-103.4545,A
8.28,19.39,326.87,-0.08,9.55,0.0,2035.19,-0.31,20.7368,-103.4545,A
8.28,19.46,-0.81,-0.05,9.56,0.0,2035.19,-0.31,20.7368,-103.4545,A
8.26,19.3,-0.81,-0.06,9.6,0.0,-4.81,-0.31,20.7368,-103.4545,A
8.27,19.37,-0.82,-0.07,9.57,0.0,-12.81,-0.31,20.7368,-103.4545,A
8.29,19.5,-0.82,-0.05,9.57,0.0,2035.19,-0.31,20.7368,-103.4545,A
8.29,19.3,-0.79,-0.05,9.6,0.0,-4.81,-0.31,20.7368,-103.4545,A
8.29,19.35,326.86,-0.06,9.58,0.0,-4.81,-0.31,20.7368,-103.4545,A
8.26,19.46,-0.8,-0.07,9.57,0.0,2043.19,-0.31,20.7368,-103.4545,A
8.31,19.31,-0.79,-0.06,9.55,0.0,2043.19,-0.31,20.7368,-103.4545,A
8.31,19.39,-0.8,-0.05,9.58,0.0,-4.81,-0.31,20.7368,-103.4545,A
8.25,19.45,326.88,-0.08,9.58,0.0,2043.19,-0.31,20.7368,-103.4545,A
8.32,19.24,-0.8,-0.06,9.59,0.0,2035.19,-0.31,20.7368,-103.4545,A
8.3,19.38,-0.8,-0.07,9.55,0.0,-4.81,-0.31,20.7368,-103.4545,A
8.28,19.49,-0.81,-0.05,9.59,0.0,-12.81,-0.31,20.7368,-103.4545,A
8.29,19.3,-0.81,-0.04,9.58,0.0,2035.19,-0.31,20.7368,-103.4545,A
8.28,19.46,-0.8,-0.06,9.58,0.0,-4.81,-0.31,20.7368,-103.4545,A
8.29,19.5,-0.79,-0.07,9.6,0.0,-4.81,-0.31,20.7368,-103.4545,A
8.29,19.24,326.89,-0.03,9.59,0.0,-12.81,-0.31,20.7368,-103.4546,A
8.31,19.38,-0.8,-0.08,9.6,0.0,2043.19,-0.31,20.7368,-103.4546,A
8.23,19.46,-0.79,-0.05,9.59,0.0,-4.81,-0.31,20.7368,-103.4546,A
8.25,19.3,-0.8,-0.08,9.6,0.0,2043.19,-0.31,20.7368,-103.4546,A
8.28,19.39,-0.8,-0.06,9.6,0.0,-4.81,-0.31,20.7368,-103.4546,A
8.24,19.49,-0.79,-0.05,9.56,0.0,-4.81,-0.31,20.7368,-103.4546,A
8.32,19.35,-0.81,-0.06,9.58,0.0,-4.81,-0.31,20.7368,-103.4546,A
8.3,19.35,326.88,-0.07,9.59,0.0,-4.81,-0.31,20.7368,-103.4546,A
8.29,19.5,-0.82,-0.06,9.55,0.0,-12.81,-0.31,20.7368,-103.4546,A
8.32,19.33,-0.8,-0.05,9.6,0.0,-4.81,-0.31,20.7368,-103.4546,A
8.22,19.35,-0.79,-0.08,9.58,0.0,-4.81,-0.31,20.7368,-103.4546,A
8.25,19.41,-0.81,-0.07,9.59,0.0,-4.81,-0.31,20.7368,-103.4546,A
8.33,19.31,326.85,-0.05,9.55,0.0,-12.81,-0.31,20.7368,-103.4546,A
8.32,19.41,-0.81,-0.05,9.58,0.0,-4.81,-0.31,20.7368,-103.4546,A
8.26,19.45,-0.79,-0.07,9.58,0.0,-4.81,-0.31,20.7368,-103.4546,A
8.3,19.3,326.89,-0.05,9.57,0.0,-4.81,-0.31,20.7368,-103.4546,A
8.31,19.38,326.89,-0.06,9.55,0.0,2035.19,-0.31,20.735,-103.4547,A
8.22,19.42,-0.8,-0.08,9.55,0.0,-4.81,-0.31,20.735,-103.4547,A
8.29,19.28,-0.8,-0.07,9.57,0.0,-4.81,-0.31,20.735,-103.4547,A
8.31,19.39,326.89,-0.07,9.57,0.0,-4.81,-0.31,20.735,-103.4547,A
8.24,19.48,326.86,-0.07,9.57,0.0,2035.19,-0.31,20.735,-103.4547,A
8.3,19.26,-0.82,-0.05,9.59,0.0,-12.81,-0.31,20.735,-103.4547,A
8.27,19.41,-0.78,-0.07,9.57,0.0,-4.81,-0.31,20.735,-103.4547,A
8.3,19.5,326.87,-0.06,9.58,0.0,-4.81,-0.31,20.735,-103.4547,A
8.3,19.27,-0.81,-0.05,9.61,0.0,2043.19,-0.31,20.735,-103.4547,A
8.29,19.42,-0.79,-0.06,9.58,0.0,-4.81,-0.31,20.735,-103.4547,A
8.28,19.46,-0.79,-0.06,9.55,0.0,-4.81,-0.31,20.735,-103.4547,A
8.29,19.3,326.86,-0.07,9.56,0.0,-4.81,-0.31,20.735,-103.4547,A
8.29,19.39,-0.81,-0.06,9.57,0.0,2035.19,-0.31,20.7368,-103.4546,A
8.29,19.45,-0.82,-0.05,9.58,0.0,-4.81,-0.31,20.7368,-103.4546,A
8.31,19.3,-0.71,-0.09,9.55,0.0,2043.5,-0.44,20.7368,-103.4546,A
8.27,19.38,-0.73,-0.08,9.6,0.0,-4.5,-0.44,20.7368,-13.4546,A
8.2,19.5,326.93,-0.08,9.57,0.0,-4.5,-0.44,20.7368,-13.4546,A
8.32,19.3,326.91,-0.09,9.58,0.0,2035.5,-0.44,20.7368,-13.4546,A
8.28,19.39,-0.73,-0.07,9.55,0.0,-4.5,-0.44,20.7368,-13.4546,A
8.27,19.45,-0.73,-0.1,9.58,0.0,-4.5,-0.44,20.7368,-13.4546,A
8.25,19.31,326.91,-0.09,9.59,0.0,-4.5,-0.44,20.7368,-13.4546,A
8.31,19.38,326.91,-0.1,9.58,0.0,-12.5,-0.44,20.7368,-13.4546,A
8.25,19.45,326.94,-0.09,9.59,0.0,-12.5,-0.44,20.7368,-13.4546,A
8.25,19.27,-0.75,-0.09,9.58,0.0,-4.5,-0.44,20.7368,-13.4546,A
8.32,19.41,-0.72,-0.1,9.59,0.0,-4.5,-0.44,20.7368,-13.4546,A
8.28,19.52,-0.75,-0.11,9.58,0.0,-4.5,-0.44,20.7368,-103.4546,A
8.29,19.3,-0.73,-0.08,9.57,0.0,-4.5,-0.44,20.7368,-103.4546,A
8.32,19.39,326.92,-0.08,9.55,0.0,-4.5,-0.44,20.7368,-103.4546,A
8.22,19.46,-0.74,-0.08,9.57,0.0,2043.5,-0.44,20.7368,-103.4546,A
8.29,19.27,-0.74,-0.08,9.58,0.0,-4.5,-0.44,20.7368,-103.4546,A
8.2,19.41,-0.72,-0.09,9.57,0.0,-4.5,-0.44,20.7368,-103.4546,A
8.27,19.46,326.95,-0.1,9.58,0.0,-4.5,-0.44,20.7368,-103.4546,A
8.31,19.33,326.94,-0.09,9.57,0.0,-12.5,-0.44,20.7368,-103.4546,A
8.23,19.38,-0.74,-0.08,9.56,0.0,-4.5,-0.44,20.7368,-103.4546,A
8.27,19.48,-0.74,-0.08,9.56,0.0,-4.5,-0.44,20.7368,-103.4546,A
8.31,19.33,326.94,-0.08,9.56,0.0,-4.5,-0.44,20.7368,-103.4546,A
8.28,19.34,-0.73,-0.1,9.59,0.0,2035.5,-0.44,20.7368,-103.4546,A
8.18,19.42,-0.76,-0.07,9.56,0.0,-4.5,-0.44,20.7368,-103.4546,A
8.32,19.3,326.95,-0.08,9.58,0.0,-4.5,-0.44,20.7368,-103.4546,A
8.3,19.42,-0.74,-0.1,9.59,0.0,-4.5,-0.44,20.7368,-103.4546,A
8.2,19.49,-0.76,-0.1,9.56,0.0,-12.5,-0.44,20.7368,-103.4546,A
8.31,19.28,-0.73,-0.07,9.57,0.0,-4.5,-0.44,20.7368,-103.4546,A
8.3,19.39,-0.74,-0.08,9.55,0.0,-4.5,-0.44,20.7368,-103.4546,A
8.24,19.48,-0.76,-0.07,9.58,0.0,-4.5,-0.44,20.7368,-103.4546,A
8.29,19.31,326.95,-0.1,9.56,0.0,-4.5,-0.44,20.7368,-103.4546,A
8.26,19.46,326.94,-0.08,9.56,0.0,2035.5,-0.44,20.7368,-103.4546,A
8.27,19.49,-0.75,-0.08,9.57,0.0,-4.5,-0.44,20.7368,-103.4546,A
8.23,19.28,-0.76,-0.1,9.6,0.0,-4.5,-0.44,20.7368,-103.4546,A
8.31,19.45,326.93,-0.08,9.58,0.0,2043.5,-0.44,20.7368,-103.4546,A
8.27,19.46,-0.76,-0.08,9.58,0.0,-4.5,-0.44,20.7368,-103.4546,A
8.25,19.28,326.94,-0.11,9.59,0.0,-4.5,-0.44,20.7368,-103.4546,A
8.27,19.41,-0.75,-0.1,9.59,0.0,-4.5,-0.44,20.7368,-103.4546,A
8.23,19.5,-0.71,-0.09,9.59,0.0,-4.31,-0.56,20.7368,-103.4546,A
8.32,19.3,-0.69,-0.08,9.67,0.12,-3.88,-0.75,20.7368,-103.4546,A
8.24,19.37,-0.63,-0.13,9.59,0.38,-3.81,-0.75,20.7368,-103.4546,A
8.27,19.48,-0.61,-0.11,9.59,0.38,-3.75,-0.75,20.7368,-103.4546,A
8.33,19.31,-0.63,-0.13,9.58,0.38,-3.75,-0.75,20.7368,-103.4546,A
8.28,19.41,-0.59,-0.13,9.55,0.38,-3.75,-0.75,20.7368,-103.4546,A
8.26,19.49,-0.61,-0.12,9.58,0.38,-11.75,-0.75,20.7368,-103.4546,A
8.31,19.31,-0.62,-0.12,9.58,0.38,-3.75,-0.75,20.7368,-103.4546,A
8.32,19.39,-0.59,-0.14,9.57,0.38,-3.75,-0.75,20.7368,-103.4546,A
8.27,19.46,-0.58,-0.12,9.6,0.38,-3.75,-0.75,20.7368,-103.4546,X
8.28,19.33,-0.62,-0.13,9.55,0.38,-11.75,-0.75,20.7368,-103.4546,X
8.34,19.41,-0.59,-0.13,9.55,0.38,-3.75,-0.75,20.7368,-103.4546,X
8.24,19.46,-0.61,-0.12,9.59,0.38,-3.75,-0.75,20.7368,-103.4546,X
8.33,19.24,-0.62,-0.14,9.57,0.38,-3.75,-0.75,20.7368,-103.4546,X
8.33,19.39,-0.62,-0.12,9.56,0.38,-3.75,-0.75,20.7368,0.1667,A
8.3,19.52,-0.6,-0.12,9.59,0.38,-3.75,-0.75,20.7368,0.1667,A
8.32,19.28,-0.59,-0.12,9.57,0.38,-11.75,-0.75,20.7368,0.1667,A
8.29,19.39,-0.61,-0.13,9.59,0.38,-3.75,-0.75,20.7368,0.1667,A
8.34,19.34,-0.61,-0.13,9.57,0.38,-3.75,-0.75,20.7368,0.1667,A
8.29,19.28,-0.6,-0.15,9.58,0.38,-3.75,-0.75,20.7368,-103.4546,A
8.28,19.37,-0.6,-0.13,9.57,0.38,-11.75,-0.75,20.7368,-103.4546,A
8.29,19.54,-0.61,-0.15,9.58,0.38,-3.75,-0.75,20.7368,-103.4546,A
8.3,19.33,-0.6,-0.13,9.59,0.38,-3.75,-0.75,20.7368,-103.4546,A
8.3,19.42,-0.61,-0.14,9.59,0.38,-3.75,-0.75,20.7368,103.45,A
8.23,19.49,-0.61,-0.11,9.6,0.38,-3.75,-0.75,20.7368,103.45,A
8.3,19.34,-0.61,-0.15,9.58,0.38,-3.75,-0.75,20.7368,103.45,A
8.26,19.39,-0.6,-0.15,9.57,0.38,-3.75,-0.75,20.7368,103.45,A
8.23,19.5,-0.61,-0.11,9.57,0.38,-3.75,-0.75,20.7368,103.45,A
8.31,19.33,-0.6,-0.12,9.57,0.38,-3.75,-0.75,20.7368,103.45,A
8.3,19.44,-0.61,-0.11,9.58,0.38,-3.75,-0.75,20.7368,103.45,A
8.24,19.49,-0.59,-0.13,9.6,0.38,-3.75,-0.75,20.7368,103.45,A
8.31,19.31,-0.61,-0.14,9.57,0.38,-11.75,-0.75,20.7368,103.45,A
8.31,19.41,-0.61,-0.12,9.57,0.38,-11.75,-0.75,20.7368,103.45,A
8.23,19.48,-0.59,-0.13,9.55,0.38,-3.75,-0.75,20.7368,103.4546,A
8.3,19.31,-0.59,-0.15,9.57,0.38,-3.75,-0.75,20.7368,103.4546,A
8.32,19.42,-0.61,-0.11,9.59,0.38,-3.75,-0.75,20.7368,103.4546,A
8.23,19.54,-0.59,-0.12,9.56,0.38,-3.75,-0.75,20.7368,103.4546,A
8.3,19.3,-0.58,-0.13,9.56,0.38,-3.75,-0.75,20.7368,103.4546,A
8.32,19.45,-0.59,-0.11,9.57,0.38,-3.75,-0.75,20.7368,103.4546,A
8.28,19.53,-0.58,-0.14,9.57,0.38,-3.75,-0.75,20.7368,103.4546,A
8.31,19.31,-0.62,-0.12,9.58,0.38,-3.75,-0.75,20.7368,-103.4546,A
8.25,19.42,-0.61,-0.11,9.56,0.38,-3.75,-0.75,20.7368,-103.4546,A
8.28,19.53,-0.58,-0.13,9.58,0.38,-11.75,-0.75,20.7368,-103.4546,A
8.32,19.33,-0.61,-0.15,9.57,0.38,-3.75,-0.75,20.7368,-103.4546,A
8.31,19.38,-0.61,-0.12,9.57,0.38,-3.75,-0.75,20.7368,-103.4546,A
8.23,19.53,-0.6,-0.12,9.58,0.38,-3.75,-0.75,20.7368,16.4233,A
8.3,19.33,-0.62,-0.12,9.58,0.38,-3.75,-0.75,20.7368,16.4233,A
8.3,19.42,-0.61,-0.12,9.58,0.38,-11.75,-0.75,20.7368,16.4233,A
8.19,19.52,-0.61,-0.12,9.55,0.38,-3.75,-0.75,20.7368,16.4233,A
8.35,19.31,-0.59,-0.14,9.57,0.38,-3.75,-0.75,20.7368,16.4233,A
8.32,19.48,-0.62,-0.14,9.58,0.38,-11.75,-0.75,20.7368,-103.4625,A
8.25,19.56,-0.62,-0.11,9.53,0.38,-3.75,-0.75,20.7368,-103.4625,A
8.33,19.31,-0.59,-0.12,9.54,0.38,-3.75,-0.75,20.7368,-103.4625,A
8.32,19.45,-0.58,-0.15,9.57,0.38,-3.75,-0.75,20.7368,-103.4625,A
8.28,19.49,-0.6,-0.13,9.57,0.38,-3.75,-0.75,20.7368,-103.4546,A
8.31,19.3,-0.62,-0.12,9.55,0.38,-3.75,-0.75,20.7368,-103.4546,A
8.31,19.42,-0.61,-0.12,9.57,0.38,-3.75,-0.75,20.7368,-103.4546,A
8.3,19.5,-0.6,-0.14,9.59,0.38,-11.75,-0.75,20.7368,-103.4546,A
8.22,19.27,-0.61,-0.14,9.57,0.38,-3.75,-0.75,20.7368,-103.4546,A
8.32,19.41,-0.63,-0.14,9.58,0.38,-3.75,-0.75,20.7368,-103.4546,A
8.26,19.53,-0.61,-0.13,9.57,0.38,-3.75,-0.75,20.7368,-103.4546,A
8.3,19.28,-0.62,-0.15,9.59,0.38,-11.75,-0.75,20.7368,-103.4546,A
8.24,19.39,-0.64,-0.12,9.57,0.38,-11.75,-0.75,20.7368,-103.4546,A
8.28,19.44,-0.61,-0.13,9.58,0.38,-3.75,-0.75,20.7368,-103.4546,X
8.35,19.35,-0.62,-0.13,9.58,0.38,-3.75,-0.75,20.7368,-103.4546,A
8.26,19.37,-0.58,-0.13,9.57,0.38,-3.75,-0.75,20.7368,-103.4546,A
8.27,19.49,-0.61,-0.15,9.58,0.38,-3.75,-0.75,20.7368,-103.4546,A
8.32,19.31,-0.61,-0.13,9.56,0.38,-3.75,-0.75,20.7368,-103.4546,A
8.29,19.42,-0.62,-0.12,9.57,0.38,-11.75,-0.75,20.7368,-103.4546,A
8.27,19.45,-0.62,-0.13,9.57,0.38,-3.75,-0.75,20.7368,-13.4546,A
8.28,19.28,-0.62,-0.12,9.59,0.38,-3.75,-0.75,20.7368,-13.4546,A
8.32,19.45,-0.61,-0.12,9.56,0.38,-3.75,-0.75,20.7368,-13.4546,A
8.26,19.52,-0.62,-0.15,9.58,0.38,-3.75,-0.75,20.7368,-10.5379,A
8.35,19.28,-0.59,-0.13,9.59,0.38,-11.75,-0.75,20.7368,-10.5379,A
8.34,19.41,-0.59,-0.13,9.59,0.38,-3.75,-0.75,20.7368,-10.5379,A
8.21,19.5,-0.62,-0.12,9.53,0.38,-3.75,-0.75,20.7368,-10.5379,A
8.33,19.33,-0.6,-0.11,9.57,0.38,-3.75,-0.75,20.7368,-10.5379,A
8.31,19.46,-0.59,-0.14,9.57,0.38,-3.75,-0.75,20.7367,-10.5379,A
8.29,19.56,-0.61,-0.13,9.56,0.38,-3.75,-0.75,20.7367,-10.5379,A
8.3,19.3,-0.6,-0.14,9.57,0.38,-3.75,-0.75,20.7367,-10.5379,A
8.35,19.41,-0.62,-0.13,9.57,0.38,-3.75,-0.75,20.7367,-10.5379,A
8.3,19.54,-0.58,-0.13,9.56,0.38,-3.75,-0.75,20.7367,-10.5379,A
8.31,19.33,-0.59,-0.11,9.57,0.38,-3.75,-0.75,20.7367,-10.5379,A
8.32,19.44,-0.61,-0.11,9.57,0.38,-3.75,-0.75,20.7367,-10.5379,A
8.29,19.52,-0.58,-0.13,9.53,0.38,-3.75,-0.75,20.7367,-10.5379,A
8.36,19.33,-0.61,-0.13,9.59,0.38,-3.75,-0.75,20.7367,-10.5379,A
8.31,19.42,-0.6,-0.13,9.59,0.38,-11.75,-0.75,20.7367,-10.5379,A
8.27,19.53,-0.6,-0.11,9.57,0.38,-3.75,-0.75,20.7367,-10.5379,A
8.35,19.31,-0.61,-0.13,9.56,0.38,-3.75,-0.75,20.7367,-10.5379,A
8.27,19.38,-0.6,-0.11,9.58,0.38,-3.75,-0.75,20.7367,-10.5379,A
8.26,19.5,-0.58,-0.12,9.57,0.38,-11.75,-0.75,20.7367,-10.5379,A
8.35,19.38,-0.59,-0.11,9.56,0.38,-3.75,-0.75,20.7368,-103.4545,A
8.31,19.5,-0.59,-0.14,9.58,0.38,-3.75,-0.75,20.7368,-103.4545,A
8.27,19.46,-0.6,-0.13,9.59,0.38,-3.75,-0.75,20.7368,-103.4545,A
8.26,19.34,-0.61,-0.13,9.56,0.38,-11.75,-0.75,20.7368,-103.4545,A
8.32,19.44,-0.61,-0.12,9.57,0.38,-11.75,-0.75,20.7368,-103.4545,A
8.25,19.5,-0.61,-0.13,9.57,0.38,-3.75,-0.75,20.7368,-103.4545,A
8.31,19.34,-0.61,-0.14,9.56,0.38,-3.75,-0.75,20.7368,-103.4545,A
8.31,19.41,-0.61,-0.13,9.56,0.38,-3.75,-0.75,20.7368,-103.4545,A
8.24,19.54,-0.61,-0.13,9.57,0.38,-3.75,-0.75,20.7368,-103.4545,A
8.3,19.26,-0.62,-0.12,9.57,0.38,-3.75,-0.75,20.7368,-103.4545,A
8.3,19.41,-0.6,-0.14,9.57,0.38,-3.75,-0.75,20.7368,-103.4545,A
8.3,19.54,-0.59,-0.12,9.56,0.38,-3.75,-0.75,20.7368,-103.4545,A
8.3,19.31,-0.61,-0.11,9.59,0.38,-3.75,-0.75,20.7368,-103.4545,A
8.28,19.44,-0.64,-0.13,9.59,0.38,-11.75,-0.75,20.7368,-103.4545,A
8.29,19.5,-0.61,-0.13,9.58,0.38,-3.75,-0.75,20.7368,-103.4545,A
8.3,19.31,-0.58,-0.13,9.56,0.38,-3.75,-0.75,20.7368,-103.4545,A
8.3,19.41,-0.62,-0.13,9.57,0.38,-3.75,-0.75,20.7368,-103.4545,A
8.28,19.56,-0.56,-0.13,9.57,0.38,-3.75,-0.75,20.7368,-103.4545,A
8.33,19.3,-0.61,-0.12,9.56,0.38,-3.75,-0.75,20.7368,-103.4545,A
8.29,19.41,-0.62,-0.13,9.6,0.38,-11.75,-0.75,20.7368,-103.4545,A
8.22,19.48,-0.6,-0.11,9.56,0.38,-3.75,-0.75,20.7368,-103.4545,A
8.32,19.35,-0.57,-0.13,9.58,0.38,-3.75,-0.75,20.7368,-103.4545,A
8.27,19.45,-0.58,-0.15,9.57,0.38,-3.75,-0.75,20.7368,-103.4545,A
8.25,19.49,-0.62,-0.14,9.57,0.38,-3.75,-0.75,20.7368,-103.4545,A
8.33,19.35,-0.61,-0.09,9.62,0.38,-3.75,-0.75,20.7368,-103.4545,A
8.27,19.42,-0.59,-0.11,9.61,0.38,-3.75,-0.75,20.7368,-103.4545,A
8.25,19.48,-0.61,-0.13,9.56,0.38,-3.75,-0.75,20.7368,-103.4545,A
8.24,19.28,-0.61,-0.14,9.53,0.38,-3.75,-0.75,20.7368,-103.4545,A
8.31,19.45,-0.59,-0.12,9.56,0.38,-3.75,-0.75,20.7368,-103.4545,A
8.27,19.5,-0.6,-0.14,9.56,0.38,-11.75,-0.75,20.7368,-103.4545,A
8.26,19.27,-0.61,-0.12,9.6,0.38,-11.75,-0.75,20.7368,-103.4545,A
8.32,19.42,-0.59,-0.12,9.55,0.38,-3.75,-0.75,20.7368,-103.4545,A
8.24,19.5,-0.59,-0.13,9.57,0.38,-3.75,-0.75,20.7368,-103.4545,A
8.3,19.33,-0.59,-0.12,9.59,0.38,-3.75,-0.75,20.7368,-103.4545,A
8.28,19.42,-0.6,-0.13,9.54,0.38,-11.75,-0.75,20.7368,-103.4545,A
8.28,19.5,-0.62,-0.11,9.56,0.38,-3.75,-0.75,20.7368,-103.4545,A
8.31,19.31,-0.59,-0.13,9.61,0.38,-11.75,-0.75,20.7369,0.3123,A
8.27,19.42,-0.61,-0.09,9.6,0.38,-3.75,-0.75,20.7369,0.3123,A
8.27,19.54,-0.59,-0.12,9.56,0.38,-11.75,-0.75,20.7369,0.3123,A
8.29,19.28,-0.62,-0.11,9.57,0.38,-11.75,-0.75,20.7369,0.3123,A
8.28,19.41,-0.61,-0.16,9.57,0.38,-3.75,-0.75,20.7369,0.3123,A
8.24,19.52,-0.63,-0.12,9.57,0.38,-3.75,-0.75,20.7369,0.3123,A
8.32,19.33,-0.61,-0.14,9.58,0.38,-11.75,-0.75,20.7369,0.3123,A
8.32,19.44,-0.62,-0.12,9.61,0.38,-11.75,-0.75,20.7369,0.3123,A
8.2,19.49,-0.62,-0.12,9.58,0.38,-3.75,-0.75,20.7369,0.3123,A
8.32,19.34,-0.62,-0.13,9.55,0.38,-11.75,-0.75,20.7369,0.3123,A
8.31,19.46,-0.59,-0.12,9.57,0.38,-11.75,-0.75,20.7369,0.3123,A
8.24,19.53,-0.62,-0.14,9.58,0.38,-3.75,-0.75,20.7369,0.3123,A
8.28,19.31,-0.61,-0.12,9.56,0.38,-3.75,-0.75,20.7369,0.0333,A
8.3,19.44,-0.59,-0.12,9.59,0.38,-3.75,-0.75,20.7369,20.7369,A
8.35,19.39,-0.61,-0.13,9.57,0.38,-11.75,-0.75,20.7369,20.7369,X
8.31,19.27,-0.6,-0.14,9.56,0.38,-3.75,-0.75,20.7369,20.7369,X
8.35,19.44,-0.59,-0.13,9.53,0.38,-3.75,-0.75,20.7369,20.7369,X
8.31,19.52,-0.58,-0.13,9.58,0.38,-11.75,-0.75,20.7369,20.7369,X
8.31,19.28,-0.59,-0.15,9.57,0.38,-3.75,-0.75,20.7369,20.7369,X
8.32,19.45,-0.61,-0.13,9.56,0.38,-11.75,-0.75,20.7369,20.7369,X
8.27,19.54,-0.61,-0.11,9.58,0.38,-3.75,-0.75,20.7369,20.7369,X
8.35,19.31,-0.58,-0.14,9.58,0.38,-3.75,-0.75,20.7369,20.7369,X
8.3,19.42,-0.6,-0.12,9.58,0.38,-11.75,-0.75,20.7369,20.7369,X
8.28,19.52,-0.59,-0.13,9.56,0.38,-3.75,-0.75,20.7369,20.7369,X
8.35,19.35,-0.61,-0.11,9.59,0.38,-3.75,-0.75,20.7369,20.7369,X
8.23,19.44,-0.65,-0.12,9.56,0.38,-11.75,-0.75,20.7369,20.7369,X
8.27,19.5,-0.6,-0.13,9.58,0.38,-3.75,-0.75,20.7369,20.7369,X
8.33,19.35,-0.61,-0.14,9.56,0.38,-3.75,-0.75,20.7369,103.45,A
8.3,19.46,-0.6,-0.11,9.55,0.38,-3.75,-0.75,20.7369,103.45,A
8.18,19.46,-0.61,-0.11,9.57,0.38,-3.75,-0.75,20.7369,103.45,A
8.28,19.33,-0.52,-0.16,9.56,0.38,-3.75,-0.75,20.7369,103.45,A
8.29,19.42,-0.57,-0.14,9.56,0.38,-11.75,-0.75,20.7369,103.45,A
8.18,19.5,-0.64,-0.11,9.6,0.38,-11.75,-0.75,20.7369,103.45,A
8.27,19.28,-0.61,-0.13,9.61,0.38,-3.75,-0.75,20.7369,103.45,A
8.28,19.39,-0.61,-0.12,9.57,0.38,-3.75,-0.75,20.7369,103.45,A
8.26,19.5,-0.59,-0.15,9.58,0.38,-3.75,-0.75,20.7369,103.45,A
8.27,19.28,-0.62,-0.12,9.57,0.38,-3.75,-0.75,20.7369,-103.4544,A
8.25,19.39,-0.61,-0.14,9.58,0.38,-3.75,-0.75,20.7369,-103.4544,A
8.28,19.53,-0.57,-0.15,9.55,0.38,-3.75,-0.75,20.7369,-103.4544,A
8.3,19.33,-0.58,-0.14,9.54,0.38,-11.75,-0.75,20.7369,-103.4544,A
8.28,19.39,-0.59,-0.13,9.57,0.38,-11.75,-0.75,20.7369,-103.4544,A
8.3,19.45,-0.62,-0.13,9.6,0.38,-3.75,-0.75,20.7369,0.0167,A
8.3,19.28,-0.57,-0.13,9.58,0.38,-3.75,-0.75,20.7369,0.0167,A
8.28,19.44,-0.61,-0.14,9.55,0.38,-3.75,-0.75,20.7369,0.0167,A
8.24,19.56,-0.62,-0.13,9.57,0.38,-11.75,-0.75,20.7369,0.0167,A
8.33,19.3,-0.58,-0.11,9.6,0.38,-3.75,-0.75,20.7369,0.0167,A
8.22,19.44,-0.6,-0.12,9.57,0.38,-3.75,-0.75,20.7369,0.0167,A
8.23,19.49,-0.6,-0.12,9.56,0.38,-3.75,-0.75,20.7369,0.0167,A
8.34,19.31,-0.59,-0.14,9.58,0.38,-3.75,-0.75,20.7369,0.0167,A
8.31,19.49,-0.61,-0.14,9.56,0.38,-11.75,-0.75,20.7369,0.0167,A
8.25,19.49,-0.64,-0.11,9.6,0.38,-3.75,-0.75,20.7369,0.0167,A
8.32,19.33,-0.62,-0.11,9.56,0.38,-3.75,-0.75,20.7369,-103.4544,A
8.31,19.41,-0.59,-0.12,9.59,0.38,-3.75,-0.75,20.7369,-103.4544,A
8.24,19.52,-0.58,-0.14,9.57,0.38,-3.75,-0.75,20.7369,-103.4544,A
8.22,19.26,-0.6,-0.12,9.56,0.38,-3.75,-0.75,20.7369,-103.4544,A
8.31,19.44,-0.62,-0.13,9.56,0.38,-3.75,-0.75,20.7369,-103.4544,A
8.21,19.49,-0.59,-0.13,9.6,0.38,-3.75,-0.75,20.7369,-103.4544,A
8.28,19.27,-0.58,-0.13,9.56,0.38,-11.75,-0.75,20.7369,-103.4544,A
8.3,19.44,-0.61,-0.12,9.59,0.38,-3.75,-0.75,20.7368,-103.4544,A
8.27,19.5,-0.59,-0.12,9.55,0.38,-3.75,-0.75,20.7368,-103.4544,A
8.3,19.34,-0.6,-0.13,9.59,0.38,-3.75,-0.75,20.7368,-103.4544,A
8.23,19.41,-0.6,-0.13,9.57,0.38,-11.75,-0.75,20.7368,-103.4544,A
8.27,19.53,-0.63,-0.11,9.58,0.38,-3.75,-0.75,20.7368,-103.4544,A
8.26,19.38,-0.57,-0.11,9.54,0.38,-3.75,-0.75,20.7368,-103.4544,A
8.27,19.38,-0.59,-0.11,9.57,0.38,-3.75,-0.75,20.7368,-103.4544,A
8.27,19.53,-0.64,-0.12,9.52,0.56,-3.81,-0.81,20.7368,-103.4544,A
8.23,19.35,-0.63,-0.13,9.59,0.56,-3.81,-0.81,20.7368,-103.4544,A
8.26,19.41,-0.62,-0.13,9.59,0.56,-11.81,-0.81,20.7368,-103.4544,A
8.17,19.48,-0.61,-0.13,9.55,0.56,-11.81,-0.81,20.7368,-3.4543,A
8.32,19.35,-0.58,-0.13,9.57,0.56,-3.81,-0.81,20.7368,3.4543,A
8.32,19.48,-0.6,-0.12,9.58,0.56,-3.81,-0.81,20.7368,-3.4543,A
8.22,19.49,-0.61,-0.11,9.57,0.56,-11.81,-0.81,20.7368,-3.4543,A
8.31,19.39,-0.59,-0.14,9.56,0.56,-3.81,-0.81,20.7368,-103.4544,A
8.21,19.46,-0.6,-0.13,9.58,0.56,-3.81,-0.81,20.7368,-103.4544,A
8.22,19.49,-0.59,-0.13,9.56,0.56,-3.81,-0.81,20.7368,-103.4544,A
8.28,19.28,-0.6,-0.14,9.57,0.56,-3.81,-0.81,20.7368,-103.4544,A
8.29,19.44,-0.64,-0.12,9.58,0.56,-3.81,-0.81,20.7368,-103.4544,A
8.27,19.52,-0.63,-0.14,9.57,0.56,-3.81,-0.81,20.7368,-103.4544,A
8.24,19.34,-0.62,-0.13,9.61,0.56,-3.81,-0.81,20.7368,-103.4544,A
8.3,19.42,-0.6,-0.15,9.56,0.56,-3.81,-0.81,20.7368,-103.4544,A
8.25,19.53,-0.59,-0.13,9.59,0.56,-3.81,-0.81,20.7368,-103.4544,A
8.28,19.3,-0.63,-0.14,9.57,0.56,-3.81,-0.81,20.7368,-103.4544,A
8.25,19.42,-0.62,-0.13,9.55,0.56,-3.81,-0.81,20.7368,-103.4544,A
8.21,19.49,-0.61,-0.13,9.57,0.56,-11.81,-0.81,20.7368,-103.4544,A
8.3,19.35,-0.61,-0.13,9.6,0.56,-11.81,-0.81,20.7368,-103.4544,A
8.25,19.37,-0.59,-0.13,9.56,0.56,-3.81,-0.81,20.7368,-103.4544,X
8.26,19.52,-0.62,-0.14,9.58,0.56,-11.81,-0.81,20.7368,-103.4544,X
8.29,19.33,-0.59,-0.12,9.57,0.56,-3.81,-0.81,20.7368,-103.4544,X
8.28,19.39,-0.61,-0.12,9.6,0.56,-11.81,-0.81,20.7368,-103.4544,X
8.24,19.45,-0.62,-0.12,9.56,0.56,-3.81,-0.81,20.7368,-103.4544,A
8.27,19.3,-0.61,-0.11,9.57,0.56,-3.81,-0.81,20.7368,-103.4544,A
8.29,19.46,-0.62,-0.14,9.56,0.56,-3.81,-0.81,20.7368,-103.4544,A
8.22,19.46,-0.6,-0.14,9.58,0.56,-3.81,-0.81,20.7368,-103.4544,A
8.29,19.31,-0.6,-0.11,9.58,0.56,-3.81,-0.81,20.7368,-103.4544,A
8.3,19.42,-0.61,-0.12,9.59,0.56,-3.81,-0.81,20.7368,-103.4544,A
8.21,19.52,-0.59,-0.13,9.58,0.56,-3.81,-0.81,20.7368,-103.4544,A
8.26,19.3,-0.59,-0.14,9.58,0.56,-3.81,-0.81,20.7368,-103.4544,A
8.23,19.41,-0.6,-0.13,9.56,0.56,-3.81,-0.81,20.7368,-103.4544,A
8.25,19.53,-0.62,-0.13,9.56,0.56,-11.81,-0.81,20.7368,-103.4544,A
8.26,19.27,-0.6,-0.12,9.57,0.56,-3.81,-0.81,20.7368,-103.4544,A
8.28,19.39,-0.6,-0.12,9.54,0.56,-3.81,-0.81,20.7368,-103.4544,A
8.26,19.52,-0.59,-0.13,9.59,0.56,-11.81,-0.81,20.7368,-103.4544,A
8.2,19.33,-0.6,-0.14,9.57,0.56,-3.81,-0.81,20.7368,-103.4544,A
8.26,19.42,-0.61,-0.12,9.57,0.56,-3.81,-0.81,20.7368,-103.4544,A
8.25,19.52,-0.6,-0.12,9.59,0.56,-3.81,-0.81,20.7368,-103.4544,A
8.3,19.35,-0.61,-0.12,9.55,0.56,-11.81,-0.81,20.7368,-103.4544,A
8.24,19.42,-0.61,-0.13,9.57,0.56,-3.81,-0.81,20.7368,-103.4544,A
8.19,19.5,-0.62,-0.13,9.58,0.56,-3.81,-0.81,20.7368,-103.4544,A
8.3,19.31,-0.6,-0.13,9.61,0.56,-3.81,-0.81,20.7368,-103.4544,A
8.25,19.42,-0.61,-0.12,9.57,0.56,-3.81,-0.81,20.7368,-103.4544,A
8.23,19.52,-0.6,-0.13,9.56,0.56,-11.81,-0.81,20.7368,-103.4544,A
8.3,19.33,-0.61,-0.14,9.59,0.56,-3.81,-0.81,20.7368,-103.4544,A
8.24,19.42,-0.63,-0.13,9.57,0.56,-3.81,-0.81,20.7368,-103.4544,A
8.24,19.48,-0.6,-0.14,9.58,0.56,-3.81,-0.81,20.7368,-103.4544,A
8.25,19.3,-0.6,-0.13,9.58,0.56,-3.81,-0.81,20.7368,-103.4544,A
8.28,19.42,-0.62,-0.15,9.6,0.56,-11.81,-0.81,20.7368,-103.4544,A
8.22,19.45,-0.59,-0.13,9.55,0.56,-3.81,-0.81,20.7368,-103.4544,A
8.27,19.31,-0.58,-0.15,9.55,0.56,-3.81,-0.81,20.7368,-103.4544,A
8.28,19.44,-0.6,-0.12,9.59,0.56,-11.81,-0.81,20.7368,-103.4544,A
8.22,19.54,-0.61,-0.14,9.55,0.56,-3.81,-0.81,20.7368,-103.4544,A
8.28,19.34,-0.62,-0.16,9.58,0.56,-3.81,-0.81,20.7368,-103.4544,A
8.29,19.42,-0.62,-0.15,9.6,0.56,-3.81,-0.81,20.7368,-103.4544,A
8.25,19.53,-0.6,-0.14,9.55,0.56,-3.81,-0.81,20.7368,-103.4544,A
8.24,19.28,-0.6,-0.12,9.56,0.56,-3.81,-0.81,20.7368,-103.4544,A
8.25,19.38,-0.63,-0.14,9.56,0.56,-3.81,-0.81,20.7368,-103.4544,A
8.25,19.48,-0.61,-0.15,9.57,0.56,-11.81,-0.81,20.7368,-103.4544,A
8.27,19.33,-0.61,-0.11,9.57,0.56,-11.81,-0.81,20.7368,-103.4544,A
8.25,19.46,-0.59,-0.13,9.57,0.56,-3.81,-0.81,20.7368,-103.4544,A
8.26,19.52,-0.62,-0.13,9.57,0.56,-3.81,-0.81,20.7368,-103.4544,A
8.24,19.37,-0.6,-0.11,9.6,0.56,-11.81,-0.81,20.7368,-103.4544,A
8.26,19.39,-0.61,-0.12,9.59,0.56,-11.81,-0.81,20.7369,3.6037,A
8.2,19.49,-0.62,-0.12,9.57,0.56,-3.81,-0.81,20.7369,3.6037,A
8.33,19.33,-0.61,-0.12,9.61,0.56,-3.81,-0.81,20.7369,3.6037,A
8.3,19.48,-0.61,-0.12,9.56,0.56,-3.81,-0.81,20.7369,0.0,A
8.23,19.34,-0.59,-0.11,9.58,0.56,-3.81,-0.81,20.7369,0.0,A
8.26,19.34,-0.64,-0.12,9.58,0.56,-3.81,-0.81,20.7369,0.0,A
8.23,19.42,-0.62,-0.15,9.57,0.56,-11.81,-0.81,20.7369,0.0,A
8.18,19.48,-0.64,-0.12,9.57,0.56,-3.81,-0.81,20.7369,0.0,A
8.23,19.35,-0.6,-0.12,9.54,0.56,-3.81,-0.81,20.7369,0.0,A
8.26,19.46,-0.6,-0.13,9.58,0.56,-3.81,-0.81,20.7369,0.0,A
8.18,19.53,-0.61,-0.14,9.59,0.56,-3.81,-0.81,20.7369,0.0,A
8.25,19.28,-0.6,-0.13,9.58,0.56,-3.81,-0.81,20.7369,0.0,A
8.24,19.44,-0.61,-0.14,9.58,0.56,-3.81,-0.81,20.7369,0.0,A
8.2,19.41,-0.61,-0.14,9.56,0.56,-3.81,-0.81,20.7369,0.0,A
8.24,19.3,-0.61,-0.13,9.56,0.56,-3.81,-0.81,20.7369,0.0,A
8.21,19.44,-0.61,-0.12,9.56,0.56,-11.81,-0.81,20.7369,0.0,A
8.2,19.57,-0.63,-0.11,9.55,0.56,-3.81,-0.81,20.7369,0.0,A
8.27,19.37,-0.59,-0.14,9.57,0.56,-3.81,-0.81,20.7369,0.0,A
8.17,19.48,-0.61,-0.14,9.59,0.56,-3.81,-0.81,20.7369,0.0,A
8.2,19.49,-0.6,-0.13,9.56,0.56,-11.81,-0.81,20.7369,0.0,A
8.22,19.33,-0.63,-0.14,9.58,0.56,-3.81,-0.81,20.7369,0.0,A
8.24,19.44,-0.61,-0.12,9.6,0.56,-3.81,-0.81,20.7369,0.0,A
8.17,19.5,-0.58,-0.14,9.57,0.56,-3.81,-0.81,20.7369,0.0,X
8.23,19.34,-0.59,-0.13,9.57,0.56,-3.81,-0.81,20.7369,0.0,X
8.26,19.46,-0.57,-0.14,9.59,0.56,-3.81,-0.81,20.7369,0.0,X
8.23,19.35,-0.64,-0.11,9.56,0.56,-3.81,-0.81,20.7369,0.0,X
8.27,19.31,327.03,-0.14,9.57,0.56,-3.81,-0.81,20.7369,0.0,X
8.18,19.44,-0.62,-0.12,9.61,0.56,-3.81,-0.81,20.7369,0.0,X
8.17,19.53,-0.59,-0.12,9.56,0.56,-11.81,-0.81,20.7369,0.0,X
8.23,19.3,-0.59,-0.12,9.58,0.56,-3.81,-0.81,20.7369,0.0,X
8.2,19.49,-0.58,-0.13,9.58,0.56,-3.81,-0.81,20.7369,0.0,X
8.27,19.41,-0.59,-0.13,9.59,0.56,-3.81,-0.81,20.7369,0.0,X
8.22,19.28,-0.6,-0.16,9.61,0.56,-11.81,-0.81,20.7369,0.0,X
8.26,19.44,-0.6,-0.14,9.56,0.56,-3.81,-0.81,20.7369,0.0,X
8.22,19.53,-0.58,-0.12,9.59,0.56,-3.81,-0.81,20.7369,0.0,X
8.25,19.3,-0.6,-0.14,9.58,0.56,-3.81,-0.81,20.7369,0.0,X
8.23,19.45,-0.6,-0.12,9.6,0.56,-3.81,-0.81,20.7369,0.0,X
8.2,19.54,-0.6,-0.13,9.59,0.56,-3.81,-0.81,20.7369,0.0,X
8.26,19.39,-0.61,-0.13,9.6,0.56,-3.81,-0.81,20.7369,0.0,X
8.23,19.46,-0.59,-0.12,9.56,0.56,-3.81,-0.81,20.7369,0.0,X
8.21,19.53,-0.6,-0.12,9.6,0.56,-3.81,-0.81,20.7369,0.0,X
8.26,19.3,-0.63,-0.14,9.57,0.56,-11.81,-0.81,20.7369,0.0,X
8.19,19.46,-0.6,-0.12,9.59,0.56,-3.81,-0.81,20.7369,0.0,X
8.2,19.53,-0.61,-0.13,9.56,0.56,-3.81,-0.81,20.7369,0.0,X
8.26,19.35,-0.61,-0.12,9.59,0.56,-11.81,-0.81,20.7369,0.0,X
8.25,19.49,-0.61,-0.14,9.58,0.56,-3.81,-0.81,20.7369,0.0,X
8.18,19.53,-0.61,-0.13,9.58,0.56,-3.81,-0.81,20.7369,0.0,X
8.3,19.37,-0.62,-0.14,9.56,0.56,-3.81,-0.81,20.7369,0.0,X
8.26,19.44,-0.62,-0.14,9.58,0.56,-3.81,-0.81,20.7369,0.0,X
8.17,19.38,-0.63,-0.12,9.59,0.56,-11.81,-0.81,20.7369,0.0,X
8.24,19.31,-0.61,-0.13,9.57,0.56,-11.81,-0.81,20.7369,0.0,X
8.26,19.44,-0.61,-0.12,9.58,0.56,-3.81,-0.81,20.7369,0.0,X
8.22,19.57,-0.61,-0.13,9.57,0.56,-3.81,-0.81,20.7369,0.0,X
8.21,19.3,-0.61,-0.13,9.56,0.56,-3.81,-0.81,20.7369,0.0,X
8.2,19.46,-0.62,-0.11,9.53,0.56,-11.81,-0.81,20.7369,0.0,X
8.21,19.56,-0.61,-0.13,9.58,0.56,-3.81,-0.81,20.7369,0.0,X
8.19,19.31,-0.61,-0.12,9.59,0.56,-3.81,-0.81,20.7369,0.0,X
8.24,19.46,-0.63,-0.15,9.58,0.56,-11.81,-0.81,20.7369,0.0,X
8.22,19.54,-0.6,-0.12,9.57,0.56,-3.81,-0.81,20.7369,0.0,X
8.23,19.38,-0.61,-0.15,9.57,0.56,-3.81,-0.81,20.7369,0.0,X
8.25,19.48,-0.61,-0.14,9.57,0.56,-3.81,-0.81,20.7369,0.0,X
8.26,19.42,-0.63,-0.11,9.55,0.56,-3.81,-0.81,20.7369,0.0,X
8.28,19.31,-0.6,-0.13,9.58,0.56,-11.81,-0.81,20.7369,0.0,X
8.23,19.42,-0.59,-0.11,9.55,0.56,-3.81,-0.81,20.7369,0.0,X
8.19,19.53,-0.6,-0.13,9.6,0.56,-3.81,-0.81,20.7369,0.0,X
8.27,19.33,-0.59,-0.13,9.54,0.56,-3.81,-0.81,20.7369,0.0,X
8.22,19.46,-0.61,-0.12,9.56,0.56,-3.81,-0.81,20.7369,0.0,X
8.19,19.5,-0.61,-0.13,9.55,0.56,-11.81,-0.81,20.7369,0.0,X
8.24,19.34,-0.6,-0.12,9.55,0.56,-3.81,-0.81,20.7369,0.0,X
8.26,19.44,-0.6,-0.12,9.6,0.56,-3.81,-0.81,20.7369,0.0,X
8.12,19.54,-0.61,-0.11,9.57,0.56,-3.81,-0.81,20.7369,0.0,X
8.23,19.31,-0.61,-0.13,9.55,0.56,-3.81,-0.81,20.7369,0.0,X
8.25,19.45,-0.62,-0.14,9.6,0.56,-3.81,-0.81,20.7369,0.0,X
8.2,19.6,-0.6,-0.13,9.58,0.56,-3.81,-0.81,20.7369,0.0,X
8.25,19.27,-0.61,-0.13,9.6,0.56,-3.81,-0.81,20.7369,0.0,X
8.24,19.41,-0.6,-0.14,9.57,0.56,-3.81,-0.81,20.7369,0.0,X
8.27,19.38,-0.6,-0.14,9.55,0.56,-3.81,-0.81,20.7369,0.0,X
8.24,19.31,-0.63,-0.14,9.56,0.56,-11.81,-0.81,20.7369,0.0,X
8.19,19.45,-0.58,-0.14,9.57,0.56,-3.81,-0.81,20.7369,0.0,X
8.21,19.53,-0.63,-0.14,9.57,0.56,-3.81,-0.81,20.7369,0.0,X
8.23,19.35,-0.6,-0.12,9.56,0.56,-3.81,-0.81,20.7369,0.0,X
8.23,19.39,-0.6,-0.12,9.57,0.56,-11.81,-0.81,20.7369,0.0,X
8.21,19.57,-0.58,-0.13,9.57,0.56,-3.81,-0.81,20.7369,0.0,X
8.25,19.35,-0.62,-0.14,9.58,0.56,-3.81,-0.81,20.7369,0.0,X
8.23,19.44,-0.59,-0.14,9.58,0.56,-11.81,-0.81,20.7369,0.0,X
8.15,19.59,-0.66,-0.14,9.59,0.56,-3.81,-0.81,20.7369,0.0,X
8.28,19.35,-0.62,-0.12,9.59,0.56,-3.81,-0.81,20.7369,0.0,X
8.2,19.48,-0.61,-0.14,9.56,0.56,-3.81,-0.81,20.7369,0.0,X
8.25,19.35,-0.61,-0.13,9.59,0.56,-3.81,-0.81,20.7369,0.0,X
8.27,19.34,-0.6,-0.13,9.58,0.56,-11.81,-0.81,20.7369,0.0,X
8.19,19.39,-0.58,-0.12,9.58,0.56,-11.81,-0.81,20.7369,0.0,X
8.19,19.52,-0.59,-0.11,9.56,0.56,-3.81,-0.81,20.7369,0.0,X
8.2,19.33,-0.62,-0.13,9.57,0.56,-3.81,-0.81,20.7369,0.0,X
8.25,19.48,-0.6,-0.15,9.57,0.56,-3.81,-0.81,20.7369,0.0,X
8.22,19.56,-0.63,-0.14,9.58,0.56,-11.81,-0.81,20.7369,0.0,X
8.23,19.31,-0.6,-0.13,9.59,0.56,-11.81,-0.81,20.7369,0.0,X
8.24,19.41,-0.61,-0.12,9.55,0.56,-3.81,-0.81,20.7369,0.0,X
8.15,19.5,-0.61,-0.13,9.59,0.56,-11.81,-0.81,20.7369,0.0,X
8.23,19.33,-0.62,-0.13,9.59,0.56,-11.81,-0.81,20.7369,0.0,X
8.23,19.41,-0.61,-0.13,9.58,0.56,-3.81,-0.81,20.7369,0.0,X
8.21,19.53,-0.61,-0.15,9.58,0.56,-3.81,-0.81,20.7369,0.0,X
8.27,19.35,-0.64,-0.14,9.56,0.56,-3.81,-0.81,20.7369,0.0,X
8.17,19.41,-0.61,-0.11,9.54,0.56,-3.81,-0.81,20.7369,0.0,X
8.2,19.56,-0.6,-0.14,9.59,0.56,-3.81,-0.81,20.7369,0.0,X
8.27,19.37,-0.59,-0.15,9.55,0.56,-3.81,-0.81,20.7369,0.0,X
8.23,19.45,-0.62,-0.15,9.57,0.56,-3.81,-0.81,20.7369,0.0,X
8.18,19.52,-0.59,-0.14,9.59,0.56,-3.81,-0.81,20.7369,0.0,X
8.28,19.33,-0.63,-0.15,9.58,0.56,-11.81,-0.81,20.7369,0.0,X
8.26,19.49,-0.6,-0.12,9.56,0.56,-3.81,-0.81,20.7369,0.0,X
8.14,19.5,-0.61,-0.15,9.56,0.56,-3.81,-0.81,20.7369,0.0,X
8.27,19.34,-0.59,-0.12,9.56,0.56,-3.81,-0.81,20.7369,0.0,X
8.24,19.46,-0.6,-0.12,9.59,0.56,-3.81,-0.81,20.7369,0.0,X
8.18,19.53,-0.61,-0.14,9.54,0.56,-3.81,-0.81,20.7369,0.0,X
8.2,19.33,-0.6,-0.12,9.58,0.56,-3.81,-0.81,20.7369,0.0,X
8.19,19.45,-0.6,-0.13,9.59,0.56,-3.81,-0.81,20.7369,0.0,X
8.26,19.41,-0.6,-0.13,9.54,0.56,-3.81,-0.81,20.7369,0.0,X
8.18,19.33,-0.63,-0.11,9.58,0.56,-3.81,-0.81,20.7369,0.0,X
8.25,19.46,-0.65,-0.11,9.58,0.56,-3.81,-0.81,20.7369,0.0,X
8.21,19.53,-0.59,-0.12,9.56,0.56,-3.81,-0.81,20.7369,0.0,X
8.23,19.26,-0.59,-0.12,9.58,0.56,-3.81,-0.81,20.7369,0.0,X
8.22,19.45,-0.63,-0.14,9.58,0.56,-11.81,-0.81,20.7369,0.0,X
8.24,19.42,-0.63,-0.14,9.57,0.56,-3.81,-0.81,20.7369,0.0,X
8.27,19.34,-0.62,-0.13,9.6,0.56,-3.81,-0.81,20.7369,0.0,X
8.21,19.46,-0.6,-0.14,9.57,0.56,-3.81,-0.81,20.7369,0.0,X
8.26,19.38,-0.61,-0.12,9.58,0.56,-3.81,-0.81,20.7369,0.0,X
8.27,19.28,-0.61,-0.13,9.57,0.56,-11.81,-0.81,20.7369,0.0,X
8.18,19.44,-0.62,-0.11,9.56,0.56,-3.81,-0.81,20.7369,0.0,X
8.19,19.54,-0.6,-0.14,9.57,0.56,-3.81,-0.81,20.7369,0.0,X
8.24,19.3,-0.61,-0.12,9.58,0.56,-3.81,-0.81,20.7369,0.0,X
8.24,19.48,-0.62,-0.11,9.62,0.56,-3.81,-0.81,20.7369,0.0,X
8.14,19.56,-0.59,-0.12,9.59,0.56,-3.81,-0.81,20.7369,0.0,X
8.26,19.31,-0.6,-0.14,9.57,0.56,-3.81,-0.81,20.7369,0.0,X
8.26,19.46,-0.62,-0.13,9.57,0.56,-3.81,-0.81,20.7369,0.0,X
8.17,19.6,-0.6,-0.12,9.56,0.56,-3.81,-0.81,20.7369,0.0,X
8.23,19.28,-0.59,-0.12,9.57,0.56,-3.81,-0.81,20.7369,0.0,X
8.24,19.45,-0.6,-0.13,9.58,0.56,-3.81,-0.81,20.7369,0.0,X
8.26,19.44,-0.6,-0.13,9.6,0.56,-3.81,-0.81,20.7369,0.0,X
8.23,19.31,-0.61,-0.13,9.59,0.56,-11.81,-0.81,20.7369,0.0,X
8.26,19.42,-0.6,-0.13,9.58,0.56,-3.81,-0.81,20.7369,0.0,X
8.22,19.53,-0.59,-0.13,9.6,0.56,-3.81,-0.81,20.737,-103.4546,A
8.26,19.28,-0.58,-0.13,9.57,0.56,-3.81,-0.81,20.737,-103.4546,A
8.26,19.45,-0.61,-0.12,9.56,0.56,-11.81,-0.81,20.737,-103.4546,A
8.26,19.5,-0.58,-0.11,9.57,0.56,-11.81,-0.81,20.737,-103.4546,A
8.3,19.34,-0.62,-0.11,9.58,0.56,-3.81,-0.81,20.737,-103.4546,A
8.25,19.44,-0.6,-0.13,9.6,0.56,-3.81,-0.81,20.737,-103.4546,A
8.19,19.53,-0.6,-0.12,9.57,0.56,-3.81,-0.81,20.737,-103.4546,A
8.3,19.34,-0.59,-0.14,9.57,0.56,-11.81,-0.81,20.737,-103.4546,A
8.21,19.46,-0.6,-0.13,9.58,0.56,-3.81,-0.81,20.737,-103.4546,A
8.24,19.49,-0.59,-0.14,9.57,0.56,-3.81,-0.81,20.737,-103.4546,A
8.3,19.33,-0.62,-0.12,9.59,0.56,-3.81,-0.81,20.737,-103.4546,A
8.25,19.46,-0.6,-0.12,9.56,0.56,-3.81,-0.81,20.737,-103.4546,A
8.22,19.46,-0.6,-0.13,9.6,0.56,-3.81,-0.81,20.737,-103.4546,A
8.25,19.27,-0.6,-0.12,9.6,0.56,-3.81,-0.81,20.737,-103.4546,A
8.3,19.42,-0.6,-0.12,9.58,0.56,-11.81,-0.81,20.737,-103.4546,A
8.22,19.46,-0.62,-0.12,9.57,0.56,-11.81,-0.81,20.737,-103.4546,X
8.25,19.33,-0.59,-0.13,9.57,0.56,-3.81,-0.81,20.737,-103.4546,X
8.3,19.41,-0.58,-0.14,9.56,0.56,-3.81,-0.81,20.7369,103.4533,A
8.22,19.52,-0.6,-0.14,9.57,0.56,-11.81,-0.81,20.7369,103.4533,A
8.27,19.28,-0.61,-0.16,9.53,0.56,-3.81,-0.81,20.7369,103.4533,A
8.3,19.46,-0.61,-0.12,9.56,0.56,-3.81,-0.81,20.7369,103.4533,A
8.25,19.53,-0.59,-0.15,9.59,0.56,-3.81,-0.81,20.7369,103.4533,A
8.29,19.3,-0.62,-0.14,9.57,0.56,-3.81,-0.81,20.7369,103.4533,A
8.2,19.42,-0.6,-0.14,9.58,0.56,-11.81,-0.81,20.7369,103.4533,A
8.24,19.5,-0.6,-0.12,9.61,0.56,-3.81,-0.81,20.7369,103.4533,A
8.26,19.37,-0.61,-0.12,9.59,0.56,-11.81,-0.81,20.7369,103.4533,A
8.28,19.42,-0.61,-0.13,9.59,0.56,-3.81,-0.81,20.7369,103.4533,A
8.26,19.53,-0.61,-0.12,9.58,0.56,-11.81,-0.81,20.7369,-103.4547,A
8.28,19.34,-0.61,-0.12,9.55,0.56,-3.81,-0.81,20.7369,-103.4547,A
8.26,19.44,-0.59,-0.14,9.57,0.56,-3.81,-0.81,20.7369,-103.4547,A
8.22,19.49,-0.61,-0.13,9.6,0.56,-3.81,-0.81,20.7369,-103.4547,A
8.31,19.33,-0.63,-0.11,9.56,0.56,-3.81,-0.81,20.7369,-103.4547,A
8.3,19.46,-0.6,-0.12,9.56,0.56,-11.81,-0.81,20.7369,-103.4547,A
8.24,19.49,-0.62,-0.11,9.59,0.56,-11.81,-0.81,20.7369,-103.4547,A
8.3,19.34,-0.63,-0.11,9.59,0.56,-3.81,-0.81,20.7369,-103.4547,A
8.25,19.41,-0.61,-0.14,9.56,0.56,-3.81,-0.81,20.7369,-103.4547,A
8.24,19.52,-0.58,-0.15,9.56,0.56,-3.81,-0.81,20.7369,-103.4547,A
8.27,19.33,-0.59,-0.14,9.56,0.56,-11.81,-0.81,20.7369,-103.4547,A
8.29,19.46,-0.58,-0.14,9.59,0.56,-11.81,-0.81,20.7369,-103.4547,A
8.27,19.52,-0.63,-0.13,9.59,0.56,-3.81,-0.81,20.7369,-103.4547,A
8.27,19.3,-0.63,-0.12,9.58,0.56,-3.81,-0.81,20.7369,-103.4547,A
8.3,19.44,-0.6,-0.14,9.58,0.56,-11.81,-0.81,20.7369,-103.4547,A
8.25,19.52,-0.61,-0.14,9.57,0.56,-3.81,-0.81,20.7369,-103.4547,A
8.28,19.27,-0.61,-0.12,9.54,0.56,-3.81,-0.81,20.7369,-103.4547,A
8.28,19.44,-0.6,-0.13,9.6,0.56,-3.81,-0.81,20.7369,-103.4547,A
8.26,19.49,-0.61,-0.14,9.61,0.56,-3.81,-0.81,20.7369,-103.4547,A
8.32,19.35,-0.62,-0.12,9.57,0.56,-3.81,-0.81,20.7369,-103.4547,A
8.26,19.38,-0.63,-0.12,9.57,0.56,-3.81,-0.81,20.7369,-103.4547,A
8.27,19.52,-0.57,-0.13,9.52,0.56,-11.81,-0.81,20.7369,-103.4547,A
8.3,19.31,-0.62,-0.15,9.56,0.56,-11.81,-0.81,20.7369,-103.4547,A
8.28,19.44,-0.63,-0.12,9.54,0.56,-3.81,-0.81,20.7369,-103.4547,A
8.2,19.54,-0.63,-0.14,9.56,0.56,-3.81,-0.81,20.7369,-103.4547,A
8.3,19.28,-0.61,-0.13,9.57,0.56,-11.81,-0.81,20.7369,-103.4547,A
8.29,19.49,-0.61,-0.12,9.57,0.56,-11.81,-0.81,20.7369,-103.4547,A
8.21,19.46,-0.59,-0.12,9.59,0.56,-3.81,-0.81,20.7368,-103.4547,A
8.3,19.3,-0.58,-0.11,9.58,0.56,-3.81,-0.81,20.7368,-103.4547,A
8.3,19.46,-0.61,-0.13,9.56,0.56,-11.81,-0.81,20.7368,-103.4547,A
8.23,19.5,-0.6,-0.14,9.54,0.56,-11.81,-0.81,20.7368,-103.4547,A
8.27,19.35,-0.62,-0.13,9.59,0.56,-3.81,-0.81,20.7368,-103.4547,A
8.26,19.46,-0.61,-0.13,9.57,0.56,-3.81,-0.81,20.7368,-103.4547,A
8.25,19.52,-0.61,-0.12,9.57,0.56,-3.81,-0.81,20.7368,-103.4547,A
8.27,19.3,-0.6,-0.11,9.59,0.56,-11.81,-0.81,20.7368,-103.4547,A
8.29,19.41,-0.6,-0.13,9.59,0.56,-11.81,-0.81,20.7368,-103.4547,A
8.27,19.52,-0.62,-0.13,9.56,0.56,-3.81,-0.81,20.7368,-103.4547,A
8.27,19.28,-0.62,-0.11,9.55,0.56,-3.81,-0.81,20.7368,-103.4547,A
8.28,19.42,-0.6,-0.13,9.58,0.56,-3.81,-0.81,20.7368,-103.4547,A
8.25,19.53,-0.63,-0.12,9.58,0.56,-3.81,-0.81,20.7368,-103.4547,A
8.3,19.35,-0.57,-0.12,9.57,0.56,-3.81,-0.81,20.7368,-103.4547,A
8.22,19.45,-0.58,-0.13,9.56,0.56,-11.81,-0.81,20.7368,-103.4547,A
8.24,19.48,-0.62,-0.12,9.59,0.56,-3.81,-0.81,20.7368,-103.4547,A
8.3,19.31,-0.66,-0.12,9.55,0.56,-3.81,-0.81,20.7368,-103.4547,A
8.21,19.42,-0.67,-0.12,9.57,0.56,-3.81,-0.81,0.0333,0.3,A
8.18,19.5,-0.57,-0.14,9.56,0.56,-11.81,-0.81,0.0333,0.0,A
8.23,19.33,-0.6,-0.14,9.56,0.56,-3.81,-0.81,20.7368,-103.4547,A
8.3,19.49,-0.61,-0.14,9.59,0.56,-3.81,-0.81,20.7368,-103.4547,A
8.22,19.5,-0.58,-0.13,9.54,0.56,-3.81,-0.81,20.7368,-103.4547,A
8.28,19.34,-0.61,-0.09,9.57,0.56,-3.81,-0.81,20.7368,-103.4547,A
8.3,19.45,-0.64,-0.12,9.56,0.56,-3.81,-0.81,20.7368,-103.4547,A
8.24,19.48,-0.58,-0.13,9.57,0.56,-3.81,-0.81,20.7368,-103.4547,A
8.28,19.27,-0.59,-0.13,9.57,0.56,-3.81,-0.81,20.7368,-103.4547,A
8.29,19.48,-0.64,-0.13,9.55,0.56,-3.81,-0.81,20.7368,-103.4547,A
8.21,19.56,-0.62,-0.12,9.56,0.56,-3.81,-0.81,20.7368,-103.4547,A
8.27,19.35,-0.6,-0.13,9.57,0.56,-3.81,-0.81,20.7368,-103.4547,A
8.26,19.45,-0.59,-0.15,9.54,0.56,-3.81,-0.81,20.7368,-103.4547,A
8.26,19.52,-0.63,-0.11,9.58,0.56,-3.81,-0.81,20.7368,-103.4547,A
8.22,19.35,-0.62,-0.15,9.59,0.56,-11.81,-0.81,20.7368,103.4547,A
8.27,19.39,-0.61,-0.14,9.56,0.56,-3.81,-0.81,20.7368,103.4547,A
8.26,19.5,-0.62,-0.14,9.56,0.56,-3.81,-0.81,20.7368,103.4547,A
8.27,19.33,-0.62,-0.14,9.59,0.56,-3.81,-0.81,20.7368,103.4547,A
8.27,19.42,-0.6,-0.11,9.58,0.56,-3.81,-0.81,20.7368,103.4547,A
8.24,19.57,-0.6,-0.13,9.61,0.56,-3.81,-0.81,20.7368,-103.4548,A
8.3,19.31,-0.61,-0.12,9.56,0.56,-3.81,-0.81,20.7368,-103.4548,A
8.25,19.39,-0.61,-0.12,9.57,0.56,-3.81,-0.81,20.7368,-103.4548,A
8.17,19.49,-0.61,-0.12,9.59,0.56,-3.81,-0.81,20.7368,-103.4548,A
8.27,19.33,-0.6,-0.12,9.57,0.56,-3.81,-0.81,20.7368,-3.4548,A
8.26,19.46,-0.6,-0.12,9.6,0.56,-3.81,-0.81,20.7368,-3.4548,A
8.21,19.49,-0.61,-0.12,9.57,0.56,-11.81,-0.81,20.7368,-3.4548,A
8.28,19.28,-0.61,-0.12,9.57,0.56,-11.81,-0.81,20.7368,-3.4548,A
8.3,19.49,-0.62,-0.15,9.56,0.56,-3.81,-0.81,20.7368,-3.4548,A
8.21,19.5,-0.61,-0.14,9.57,0.56,-11.81,-0.81,20.7381,-103.4548,A
8.19,19.28,-0.63,-0.14,9.61,0.56,-3.81,-0.81,20.7381,-103.4548,A
8.27,19.44,-0.59,-0.13,9.57,0.56,-3.81,-0.81,20.7381,-103.4548,A
8.24,19.54,-0.62,-0.14,9.57,0.56,-3.81,-0.81,20.7381,-103.4548,A
8.27,19.41,-0.6,-0.13,9.57,0.0,-3.62,-0.75,20.7369,-1.0167,A
8.27,19.52,-0.6,-0.14,9.57,0.0,-11.62,-0.75,20.7369,-1.0167,A
8.31,19.34,-0.6,-0.12,9.56,0.0,-11.62,-0.75,20.7369,-1.0167,A
8.24,19.42,-0.61,-0.13,9.56,0.0,-3.62,-0.75,20.7369,-1.0167,A
8.25,19.52,-0.57,-0.1,9.6,0.0,-11.62,-0.75,20.7369,-1.0167,A
8.29,19.34,-0.6,-0.12,9.58,0.0,-11.62,-0.75,20.7369,-1.0167,A
8.27,19.44,-0.62,-0.14,9.58,0.0,-3.62,-0.75,20.7369,-1.0167,A
8.22,19.53,-0.64,-0.13,9.57,0.0,-11.62,-0.75,20.7369,-103.4548,A
8.25,19.33,-0.61,-0.13,9.59,0.0,-3.62,-0.75,20.7369,-103.4548,A
8.28,19.5,-0.59,-0.14,9.6,0.0,-3.62,-0.75,20.7369,-103.4548,A
8.18,19.5,-0.62,-0.13,9.56,0.0,-3.62,-0.75,20.7369,-103.4548,A
8.27,19.33,-0.58,-0.15,9.57,0.0,-3.62,-0.75,20.7369,-103.4548,A
8.24,19.44,-0.59,-0.12,9.58,0.0,-3.62,-0.75,20.7369,-103.4548,A
8.21,19.5,-0.59,-0.15,9.56,0.0,-3.62,-0.75,20.7369,-103.4548,A
8.26,19.31,-0.61,-0.14,9.57,0.0,-11.62,-0.75,20.7369,-103.4548,A
8.25,19.46,-0.59,-0.12,9.57,0.0,-3.62,-0.75,20.7369,-103.4548,A
8.24,19.54,-0.59,-0.13,9.56,0.0,-3.62,-0.75,20.7369,-103.4548,A
8.26,19.28,-0.6,-0.11,9.59,0.0,-3.62,-0.75,20.7368,-3.4546,A
8.3,19.46,-0.61,-0.14,9.58,0.0,-11.62,-0.75,20.7368,-3.4546,A
8.24,19.52,-0.6,-0.11,9.55,0.0,-3.62,-0.75,20.7368,-3.4546,A
8.2,19.33,-0.61,-0.13,9.59,0.0,-3.62,-0.75,20.7368,-3.4546,A
8.26,19.44,-0.61,-0.15,9.59,0.0,-3.62,-0.75,20.7368,-103.4546,A
8.22,19.56,-0.57,-0.13,9.57,0.0,-3.62,-0.75,20.7368,-103.4546,A
8.3,19.35,-0.6,-0.13,9.57,0.0,-11.62,-0.75,20.7368,-103.4546,A
8.26,19.44,-0.63,-0.13,9.58,0.0,-3.62,-0.75,20.7368,-103.4546,A
8.21,19.53,-0.61,-0.13,9.57,0.0,-3.62,-0.75,20.7368,-103.4546,A
8.3,19.3,-0.58,-0.13,9.56,0.0,-3.62,-0.75,20.7368,-103.4545,A
8.17,19.44,-0.61,-0.13,9.58,0.0,-11.62,-0.75,20.7368,-103.4545,A
8.22,19.48,-0.61,-0.12,9.59,0.0,-11.62,-0.75,20.7368,-103.4545,A
8.25,19.34,-0.61,-0.14,9.58,0.0,-3.62,-0.75,20.7368,-103.4545,A
8.28,19.48,-0.6,-0.14,9.54,0.0,-3.62,-0.75,20.7368,-103.4545,A
8.22,19.46,-0.62,-0.14,9.57,0.0,-3.62,-0.75,20.7368,-103.4545,A
8.27,19.31,-0.62,-0.14,9.57,0.0,-11.62,-0.75,20.7368,-103.4545,A
8.28,19.44,-0.61,-0.12,9.56,0.0,-3.62,-0.75,20.7368,-103.4545,A
8.23,19.49,-0.59,-0.13,9.57,0.0,-3.62,-0.75,20.7368,-103.4545,A
8.26,19.28,-0.61,-0.12,9.58,0.0,-3.62,-0.75,20.7368,-103.4545,A
8.27,19.41,-0.62,-0.14,9.56,0.0,-11.62,-0.75,0.0,0.0,A
8.14,19.54,-0.59,-0.13,9.57,0.0,-3.62,-0.75,0.0,0.0,A
8.18,19.33,-0.63,-0.13,9.56,0.0,-11.62,-0.75,0.0,0.0,A
8.19,19.45,-0.61,-0.13,9.57,0.0,-11.62,-0.75,20.7368,-103.4544,A
8.27,19.41,-0.58,-0.13,9.61,0.0,-3.62,-0.75,20.7368,-103.4544,A
8.26,19.3,-0.59,-0.12,9.54,0.0,-3.62,-0.75,20.7368,-103.4544,A
8.17,19.38,-0.61,-0.13,9.55,0.0,-3.62,-0.75,20.7368,-103.4544,A
8.24,19.5,-0.63,-0.14,9.57,0.0,-11.62,-0.75,20.7368,-103.4544,A
8.24,19.33,-0.6,-0.12,9.57,0.0,-11.62,-0.75,20.7368,-103.4544,A
8.24,19.41,-0.61,-0.11,9.56,0.0,-3.62,-0.75,20.7368,-103.4544,A
8.19,19.5,-0.62,-0.13,9.58,0.0,-3.62,-0.75,20.7368,-103.4544,A
8.27,19.33,-0.61,-0.13,9.58,0.0,-11.62,-0.75,20.7368,-103.4544,A
8.24,19.44,-0.6,-0.12,9.57,0.0,-11.62,-0.75,20.7368,-103.4544,X
8.22,19.5,-0.6,-0.13,9.56,0.0,-3.62,-0.75,20.7368,-103.4544,X
8.3,19.33,-0.6,-0.12,9.57,0.0,-3.62,-0.75,20.7368,-103.4544,X
8.29,19.45,-0.59,-0.13,9.6,0.0,-11.62,-0.75,20.7368,-103.4544,X
8.22,19.45,-0.6,-0.12,9.54,0.0,-3.62,-0.75,20.7368,-103.4544,X
8.28,19.35,-0.62,-0.13,9.58,0.0,-3.62,-0.75,20.7369,0.9475,A
8.23,19.49,-0.58,-0.13,9.57,0.0,-3.62,-0.75,20.7369,0.9475,A
8.21,19.56,-0.61,-0.13,9.58,0.0,-3.62,-0.75,20.7369,0.9475,A
8.25,19.31,-0.6,-0.11,9.56,0.0,-3.62,-0.75,20.7369,0.9475,A
8.3,19.45,-0.63,-0.13,9.6,0.0,-3.62,-0.75,20.7369,0.9475,A
8.24,19.54,-0.6,-0.12,9.59,0.0,-3.62,-0.75,0.0,20.737,A
8.18,19.3,-0.59,-0.12,9.58,0.0,-3.62,-0.75,0.0,20.737,A
8.25,19.46,-0.61,-0.14,9.58,0.0,-3.62,-0.75,0.0,20.737,A
8.17,19.54,-0.61,-0.12,9.58,0.0,-11.62,-0.75,0.0,20.737,A
8.23,19.31,-0.63,-0.1,9.59,0.0,-3.62,-0.75,0.0,20.737,A
8.18,19.38,-0.61,-0.12,9.59,0.0,-3.62,-0.75,0.0,20.737,A
8.19,19.59,-0.6,-0.13,9.58,0.0,-3.62,-0.75,0.0,20.737,A
8.25,19.34,-0.59,-0.13,9.58,0.0,-11.62,-0.75,0.0,20.737,A
8.17,19.48,-0.62,-0.14,9.59,0.0,-11.62,-0.75,0.0,20.737,A
8.21,19.5,-0.63,-0.14,9.59,0.0,-3.62,-0.75,0.0,20.737,X
8.23,19.35,-0.64,-0.13,9.56,0.0,-3.62,-0.75,0.0,20.737,X
8.22,19.44,-0.61,-0.13,9.58,0.0,-3.62,-0.75,0.0,20.737,X
8.18,19.5,-0.6,-0.11,9.58,0.0,-3.62,-0.75,0.0,20.737,X
8.26,19.34,-0.59,-0.14,9.58,0.0,-11.62,-0.75,0.0,20.737,X
8.25,19.45,-0.61,-0.12,9.54,0.0,-3.62,-0.75,0.0,20.737,X
8.11,19.57,-0.6,-0.14,9.58,0.0,-3.62,-0.75,0.0,20.737,X
8.27,19.39,-0.58,-0.13,9.56,0.0,-3.62,-0.75,0.0,20.737,X
8.27,19.45,-0.59,-0.13,9.57,0.0,-11.62,-0.75,0.0,20.737,X
8.24,19.39,-0.61,-0.12,9.59,0.0,-3.62,-0.75,0.0,20.737,X
8.25,19.34,-0.59,-0.11,9.55,0.0,-3.62,-0.75,0.0,20.737,X
8.25,19.46,-0.62,-0.13,9.56,0.0,-3.62,-0.75,0.0,20.737,X
8.27,19.42,-0.6,-0.11,9.6,0.0,-3.62,-0.75,0.0,20.737,X
8.2,19.33,-0.61,-0.14,9.58,0.0,-11.62,-0.75,0.0,20.737,X
8.25,19.45,-0.59,-0.13,9.56,0.0,-11.62,-0.75,0.0,20.737,A
8.2,19.53,-0.6,-0.12,9.58,0.0,-3.62,-0.75,0.0,20.737,A
8.2,19.31,-0.6,-0.12,9.55,0.0,-3.62,-0.75,0.0,20.737,A
8.22,19.44,-0.59,-0.14,9.57,0.0,-3.62,-0.75,0.0,20.737,A
8.15,19.52,-0.61,-0.12,9.58,0.0,-3.62,-0.75,0.0,20.737,A
8.25,19.37,-0.62,-0.13,9.6,0.0,-3.62,-0.75,0.0,20.737,A
8.23,19.46,-0.6,-0.14,9.58,0.0,-3.62,-0.75,0.0,20.737,A
8.19,19.53,-0.59,-0.13,9.54,0.0,-11.62,-0.75,0.0,20.737,A
8.24,19.34,-0.62,-0.12,9.57,0.0,-3.62,-0.75,0.0,20.737,X
8.2,19.46,-0.59,-0.12,9.58,0.0,-3.62,-0.75,0.0,20.737,X
8.18,19.54,-0.64,-0.11,9.58,0.0,-3.62,-0.75,0.0,20.737,X
8.24,19.37,-0.6,-0.11,9.6,0.0,-3.62,-0.75,0.0,20.737,X
8.26,19.52,-0.61,-0.1,9.58,0.0,-11.62,-0.75,0.0,20.737,X
8.17,19.53,-0.6,-0.14,9.56,0.0,-3.62,-0.75,0.0,20.737,X
8.27,19.34,-0.6,-0.12,9.57,0.0,-3.62,-0.75,0.0,20.737,X
8.25,19.44,-0.6,-0.11,9.59,0.0,-3.62,-0.75,0.0,20.737,X
8.16,19.53,-0.6,-0.12,9.56,0.0,-3.62,-0.75,0.0,20.737,X
8.23,19.3,-0.59,-0.11,9.58,0.0,-3.62,-0.75,0.0,20.737,X
8.22,19.48,-0.61,-0.13,9.59,0.0,-3.62,-0.75,20.737,-103.4547,A
8.29,19.45,-0.6,-0.13,9.56,0.0,-3.62,-0.75,20.737,-103.4547,A
8.26,19.31,-0.6,-0.13,9.59,0.0,-3.62,-0.75,20.737,-103.4547,A
8.25,19.45,-0.61,-0.13,9.59,0.0,-3.62,-0.75,20.737,-103.4547,A
8.24,19.54,-0.6,-0.13,9.56,0.0,-3.62,-0.75,20.737,-103.4547,A
8.24,19.34,-0.59,-0.12,9.55,0.0,-3.62,-0.75,20.737,-103.4547,A
8.25,19.42,-0.62,-0.11,9.58,0.0,-11.62,-0.75,20.737,-103.4547,A
8.17,19.54,-0.62,-0.12,9.56,0.0,-3.62,-0.75,20.737,-103.4547,A
8.29,19.37,-0.62,-0.11,9.58,0.0,-3.62,-0.75,20.737,-103.4547,A
8.26,19.46,-0.6,-0.12,9.57,0.0,-3.62,-0.75,20.737,-103.4547,A
8.2,19.53,-0.6,-0.13,9.56,0.0,-3.62,-0.75,20.737,-103.4547,A
8.29,19.35,-0.62,-0.13,9.54,0.0,-3.62,-0.75,20.737,-103.4547,A
8.25,19.45,-0.6,-0.12,9.55,0.0,-3.62,-0.75,20.737,-103.4547,A
8.24,19.5,-0.61,-0.13,9.59,0.0,-11.62,-0.75,20.737,-103.4547,A
8.3,19.33,-0.59,-0.13,9.59,0.0,-3.62,-0.75,20.737,-103.4547,A
8.25,19.48,-0.6,-0.12,9.56,0.0,-3.62,-0.75,20.737,-103.4547,A
8.23,19.48,-0.58,-0.12,9.59,0.0,-3.62,-0.75,20.737,-103.4547,A
8.25,19.34,-0.61,-0.12,9.57,0.0,-11.62,-0.75,20.737,-103.4547,A
8.27,19.45,-0.61,-0.13,9.56,0.0,-3.62,-0.75,20.737,-103.4547,A
8.23,19.52,-0.63,-0.12,9.58,0.0,-3.62,-0.75,20.737,-103.4547,A
8.27,19.3,-0.61,-0.12,9.59,0.0,-3.62,-0.75,20.737,-103.4547,A
8.29,19.44,-0.64,-0.13,9.58,0.0,-11.62,-0.75,20.737,-103.4547,A
8.23,19.59,-0.6,-0.12,9.6,0.0,-11.62,-0.75,20.737,-103.4547,A
8.26,19.34,-0.59,-0.12,9.56,0.0,-3.62,-0.75,20.737,-103.4547,A
8.25,19.44,-0.6,-0.12,9.58,0.0,-3.62,-0.75,20.737,-103.4547,A
8.26,19.56,-0.58,-0.14,9.58,0.0,-3.62,-0.75,20.737,-103.4547,A
8.25,19.3,-0.61,-0.14,9.58,0.0,-11.62,-0.75,20.737,-103.4547,A
8.2,19.41,-0.62,-0.12,9.59,0.0,-11.62,-0.75,20.737,-103.4547,A
8.25,19.48,-0.61,-0.14,9.52,0.0,-3.62,-0.75,20.737,-103.4547,A
8.27,19.35,-0.6,-0.11,9.58,0.0,-3.62,-0.75,20.737,-103.4547,A
8.25,19.44,-0.6,-0.13,9.57,0.0,-3.62,-0.75,20.737,-103.4547,A
8.25,19.54,-0.61,-0.13,9.57,0.0,-3.62,-0.75,20.737,-103.4547,A
8.3,19.31,-0.6,-0.14,9.54,0.0,-11.62,-0.75,20.737,-103.4547,A
8.25,19.39,-0.61,-0.14,9.57,0.0,-3.62,-0.75,20.737,-103.4547,A
8.17,19.52,-0.62,-0.12,9.57,0.0,-3.62,-0.75,20.737,-103.4547,A
8.3,19.35,-0.6,-0.13,9.58,0.0,-3.62,-0.75,20.737,-103.4547,A
8.29,19.48,-0.61,-0.12,9.58,0.0,-3.62,-0.75,20.737,-103.4547,A
8.22,19.5,-0.62,-0.13,9.57,0.0,-11.62,-0.75,20.737,-103.4547,A
8.28,19.33,-0.62,-0.13,9.56,0.0,-3.62,-0.75,20.737,-103.4547,A
8.24,19.48,-0.57,-0.12,9.55,0.0,-3.62,-0.75,20.737,-103.4547,A
8.24,19.53,-0.62,-0.13,9.56,0.0,-3.62,-0.75,20.737,-103.4547,A
8.19,19.35,-0.62,-0.12,9.57,0.0,-3.62,-0.75,20.737,-103.4547,A
8.28,19.46,-0.62,-0.11,9.53,0.0,-3.62,-0.75,20.737,-103.4547,A
8.25,19.57,-0.6,-0.14,9.61,0.0,-3.62,-0.75,20.737,-103.4547,A
8.23,19.37,-0.62,-0.13,9.57,0.0,-11.62,-0.75,20.737,-103.4547,A
8.27,19.42,-0.59,-0.14,9.58,0.0,-3.62,-0.75,20.737,-103.4547,A
8.21,19.54,-0.63,-0.13,9.58,0.0,-3.62,-0.75,20.737,-103.4547,A
8.27,19.34,-0.61,-0.13,9.59,0.0,-3.62,-0.75,20.737,-103.4547,A
8.27,19.44,-0.6,-0.13,9.56,0.0,-3.62,-0.75,20.7369,-103.4548,A
8.24,19.52,-0.59,-0.16,9.58,0.0,-11.62,-0.75,20.7369,-103.4548,A
8.28,19.39,-0.6,-0.12,9.58,0.0,-11.62,-0.75,20.7369,-103.4548,A
8.15,19.37,-0.6,-0.13,9.57,0.0,-11.62,-0.75,20.7369,-103.4548,A
8.24,19.54,-0.57,-0.13,9.58,0.0,-3.62,-0.75,20.7369,-103.4548,A
8.29,19.34,-0.59,-0.12,9.57,0.0,-11.62,-0.75,20.7369,-103.4548,A
8.23,19.45,-0.59,-0.13,9.56,0.0,-11.62,-0.75,20.7369,-103.4548,A
8.2,19.45,-0.6,-0.15,9.56,0.0,-3.62,-0.75,20.7369,-103.4547,A
8.22,19.31,-0.61,-0.12,9.56,0.0,-3.62,-0.75,20.7369,-103.4547,A
8.29,19.49,-0.59,-0.13,9.58,0.0,-3.62,-0.75,20.7369,-103.4547,A
8.16,19.52,-0.63,-0.14,9.55,0.0,-3.62,-0.75,20.7369,-103.4547,A
8.28,19.35,-0.62,-0.14,9.57,0.0,-3.62,-0.75,20.7369,-103.4547,A
8.3,19.46,-0.57,-0.14,9.57,0.0,-3.62,-0.75,20.7369,-103.4547,A
8.23,19.52,-0.6,-0.14,9.59,0.0,-11.62,-0.75,20.7369,-103.4547,A
8.25,19.33,-0.6,-0.13,9.54,0.0,-3.62,-0.75,20.7369,-103.4547,A
8.27,19.44,-0.62,-0.12,9.6,0.0,-3.62,-0.75,20.7369,-103.4547,A
8.25,19.56,-0.62,-0.12,9.56,0.0,-3.62,-0.75,20.7369,-103.4547,A
8.27,19.3,-0.62,-0.13,9.55,0.0,-3.62,-0.75,20.7369,-103.4547,A
8.29,19.46,-0.59,-0.12,9.56,0.0,-3.62,-0.75,20.7369,-103.4547,A
8.21,19.53,-0.6,-0.14,9.57,0.0,-3.62,-0.75,20.7369,-103.4547,A
8.22,19.27,-0.61,-0.13,9.58,0.0,-3.62,-0.75,20.7369,-103.4547,A
8.25,19.42,-0.61,-0.12,9.58,0.0,-3.62,-0.75,20.7369,-103.4547,A
8.23,19.54,-0.58,-0.12,9.57,0.0,-3.62,-0.75,20.7369,-103.4547,A
8.31,19.38,-0.6,-0.11,9.57,0.0,-11.62,-0.75,20.7369,-103.4547,A
8.27,19.45,-0.62,-0.12,9.59,0.0,-11.62,-0.75,20.7369,-103.4547,A
8.26,19.52,-0.62,-0.12,9.58,0.0,-3.62,-0.75,20.7369,-103.4547,A
8.31,19.35,-0.6,-0.14,9.59,0.0,-3.62,-0.75,20.7369,103.4547,A
8.19,19.44,-0.61,-0.14,9.57,0.0,-11.62,-0.75,20.7369,103.4547,A
8.21,19.5,-0.62,-0.13,9.6,0.0,-3.62,-0.75,20.7369,103.4547,A
8.3,19.35,-0.6,-0.12,9.58,0.0,-11.62,-0.75,20.7369,103.4547,A
8.28,19.49,-0.61,-0.13,9.59,0.0,-11.62,-0.75,20.7369,103.4547,A
8.22,19.52,-0.6,-0.12,9.58,0.0,-3.62,-0.75,20.7369,103.4547,A
8.24,19.3,-0.61,-0.13,9.58,0.0,-3.62,-0.75,20.7369,103.4547,A
8.28,19.46,-0.61,-0.12,9.56,0.0,-11.62,-0.75,20.7369,103.4547,A
8.2,19.5,-0.6,-0.14,9.58,0.0,-3.62,-0.75,20.7369,103.4547,A
8.27,19.28,-0.6,-0.14,9.57,0.0,-3.62,-0.75,20.7369,103.4547,A
8.25,19.52,-0.62,-0.14,9.58,0.0,-3.62,-0.75,20.7369,103.4547,A
8.21,19.52,-0.59,-0.12,9.57,0.0,-3.62,-0.75,2.7369,-103.4547,A
8.29,19.34,-0.61,-0.13,9.57,0.0,-11.62,-0.75,20.7369,-103.4547,A
8.24,19.45,-0.59,-0.13,9.59,0.0,-3.62,-0.75,20.7369,-103.4547,A
8.24,19.57,-0.61,-0.13,9.56,0.0,-3.62,-0.75,20.7369,-103.4547,A
8.26,19.33,-0.59,-0.13,9.56,0.0,-3.62,-0.75,20.7369,-103.4547,A
8.19,19.41,-0.6,-0.13,9.59,0.0,-3.62,-0.75,20.7369,-103.4547,A
8.24,19.53,-0.59,-0.11,9.57,0.0,-3.62,-0.75,20.7369,-103.4547,A
8.22,19.37,-0.57,-0.13,9.54,0.0,-3.62,-0.75,20.7369,-103.4547,A
8.26,19.44,-0.59,-0.12,9.57,0.0,-3.62,-0.75,20.7369,-103.4547,A
8.27,19.53,-0.61,-0.14,9.57,0.0,-3.62,-0.75,20.7369,-103.4547,A
8.3,19.37,-0.6,-0.12,9.56,0.0,-3.62,-0.75,20.7369,-103.4547,A
8.27,19.42,-0.63,-0.13,9.57,0.0,-3.62,-0.75,20.7369,-103.4547,A
8.18,19.49,-0.61,-0.12,9.55,0.0,-11.62,-0.75,20.7369,-103.4547,A
8.3,19.33,-0.62,-0.15,9.57,0.0,-3.62,-0.75,20.7369,-103.4547,A
8.29,19.5,-0.62,-0.12,9.55,0.0,-3.62,-0.75,20.7369,-103.4547,A
8.23,19.54,-0.62,-0.13,9.57,0.0,-3.62,-0.75,20.7369,-103.4547,A
8.27,19.39,-0.58,-0.14,9.57,0.0,-3.62,-0.75,20.7369,-103.4547,A
8.25,19.45,-0.62,-0.13,9.54,0.0,-3.62,-0.75,20.7369,-103.4547,A
8.22,19.53,-0.61,-0.13,9.57,0.0,-3.62,-0.75,20.7369,-103.4547,A
8.25,19.31,-0.61,-0.12,9.59,0.0,-3.62,-0.75,2.05,0.2,A
8.21,19.46,-0.61,-0.12,9.59,0.0,-11.62,-0.75,2.05,0.2,A
8.16,19.57,-0.63,-0.13,9.58,0.0,-11.62,-0.75,0.3333,20.737,A
8.25,19.28,-0.57,-0.12,9.57,0.0,-3.62,-0.75,0.3333,20.737,A
8.28,19.46,-0.6,-0.14,9.56,0.0,-11.62,-0.75,0.3333,20.737,A
8.18,19.61,-0.6,-0.15,9.58,0.0,-11.62,-0.75,0.3333,20.737,A
8.26,19.34,-0.59,-0.12,9.58,0.0,-3.62,-0.75,0.3333,20.737,A
8.24,19.46,-0.6,-0.13,9.57,0.0,-3.62,-0.75,0.3333,20.737,A
8.28,19.41,-0.61,-0.14,9.58,0.0,-3.62,-0.75,0.3333,20.737,A
8.28,19.35,-0.62,-0.12,9.61,0.0,-11.62,-0.75,0.3333,20.737,A
8.21,19.44,-0.61,-0.13,9.58,0.0,-3.62,-0.75,0.3333,20.737,A
8.22,19.54,-0.6,-0.13,9.58,0.0,-3.62,-0.75,0.3333,20.737,A
8.28,19.37,-0.59,-0.12,9.57,0.0,-3.62,-0.75,0.3333,20.737,A
8.27,19.44,-0.59,-0.14,9.57,0.0,-11.62,-0.75,0.3333,20.737,A
8.17,19.54,-0.61,-0.13,9.56,0.0,-11.62,-0.75,0.3333,20.737,A
8.3,19.34,-0.59,-0.13,9.56,0.0,-3.62,-0.75,0.3333,20.737,A
8.27,19.48,-0.62,-0.14,9.55,0.0,-3.62,-0.75,0.3333,20.737,A
8.14,19.52,-0.62,-0.14,9.58,0.0,-11.62,-0.75,0.3333,20.737,A
8.28,19.35,-0.6,-0.15,9.57,0.0,-3.62,-0.75,0.3333,20.737,A
8.26,19.46,-0.6,-0.13,9.56,0.0,-3.62,-0.75,0.3333,20.737,A
8.19,19.6,-0.62,-0.14,9.59,0.0,-3.62,-0.75,0.3333,20.737,A
8.27,19.33,-0.6,-0.13,9.55,0.0,-11.62,-0.75,0.3333,20.737,A
8.23,19.48,-0.6,-0.13,9.56,0.0,-3.62,-0.75,0.3333,20.737,A
8.23,19.59,-0.61,-0.1,9.57,0.0,-3.62,-0.75,20.737,-103.4548,A
8.23,19.34,-0.61,-0.13,9.57,0.0,-3.62,-0.75,20.737,-103.4548,A
8.28,19.46,-0.62,-0.12,9.6,0.0,-3.62,-0.75,20.737,-103.4548,A
8.24,19.52,-0.6,-0.13,9.58,0.0,-11.62,-0.75,20.737,-103.4548,A
8.24,19.38,-0.62,-0.13,9.58,0.0,-3.62,-0.75,20.737,-103.4548,A
8.24,19.45,-0.62,-0.14,9.55,0.0,-3.62,-0.75,20.737,-103.4548,A
8.22,19.54,-0.62,-0.12,9.59,0.0,-3.62,-0.75,20.737,-103.4548,A
8.27,19.39,-0.61,-0.13,9.57,0.0,-3.62,-0.75,20.737,-103.4548,A
8.19,19.44,-0.59,-0.12,9.55,0.0,-11.62,-0.75,20.737,-103.4548,A
8.21,19.54,-0.6,-0.14,9.56,0.0,-11.62,-0.75,20.737,-103.4548,A
8.27,19.33,-0.59,-0.12,9.57,0.0,-3.62,-0.75,20.737,-103.4548,A
8.19,19.49,-0.61,-0.14,9.57,0.0,-3.62,-0.75,20.737,-103.4548,A
8.17,19.61,-0.61,-0.13,9.58,0.0,-3.62,-0.75,20.7369,0.0,A
8.22,19.3,-0.61,-0.13,9.59,0.0,-3.62,-0.75,20.7369,0.0,A
8.22,19.48,-0.6,-0.12,9.55,0.0,-3.62,-0.75,20.7369,103.4547,A
8.24,19.54,-0.6,-0.12,9.59,0.0,-3.62,-0.75,20.7369,103.4547,A
8.26,19.35,-0.6,-0.12,9.56,0.0,-3.62,-0.75,20.7369,103.4547,A
8.21,19.46,-0.61,-0.12,9.58,0.0,-11.62,-0.75,20.7369,103.4547,A
8.25,19.5,-0.62,-0.12,9.57,0.0,-11.62,-0.75,20.7369,103.4547,A
8.29,19.37,-0.62,-0.12,9.57,0.0,-3.62,-0.75,20.7369,-103.4547,A
8.26,19.41,-0.61,-0.12,9.55,0.0,-3.62,-0.75,20.7369,-103.4547,A
8.2,19.52,-0.62,-0.12,9.59,0.0,-3.62,-0.75,20.7369,-103.4547,A
8.25,19.37,-0.59,-0.13,9.56,0.0,-3.62,-0.75,20.7369,-103.4547,A
8.27,19.41,-0.61,-0.13,9.6,0.0,-3.62,-0.75,20.7369,-103.4547,A
8.16,19.49,-0.62,-0.15,9.58,0.0,-3.62,-0.75,20.7369,-103.4547,A
8.28,19.34,-0.57,-0.14,9.57,0.0,-3.62,-0.75,20.7369,-103.4547,A
8.27,19.46,-0.6,-0.15,9.56,0.0,-3.62,-0.75,20.7369,-103.4547,A
8.22,19.56,-0.6,-0.12,9.56,0.0,-3.62,-0.75,20.7369,-103.4547,A
8.29,19.38,-0.6,-0.12,9.57,0.0,-3.62,-0.75,20.7369,0.0,A
8.17,19.46,-0.57,-0.13,9.57,0.0,-3.62,-0.75,20.7369,0.0,A
8.16,19.54,-0.62,-0.14,9.6,0.0,-3.62,-0.75,20.7369,0.0,A
8.2,19.35,-0.6,-0.13,9.57,0.0,-3.62,-0.75,20.737,-103.4547,A
8.27,19.5,-0.59,-0.12,9.59,0.0,-3.62,-0.75,20.737,-103.4547,A
8.23,19.54,-0.58,-0.14,9.59,0.0,-3.62,-0.75,20.737,-103.4547,A
8.19,19.31,-0.59,-0.14,9.57,0.0,-3.62,-0.75,20.737,-103.4547,A
8.27,19.44,-0.62,-0.14,9.57,0.0,-11.62,-0.75,20.737,-103.4547,A
8.2,19.54,-0.59,-0.13,9.6,0.0,-3.62,-0.75,20.737,-103.4547,A
8.25,19.31,-0.59,-0.14,9.59,0.0,-3.62,-0.75,20.737,-103.4547,A
8.24,19.45,-0.61,-0.15,9.56,0.0,-3.62,-0.75,20.737,-103.4547,A
8.24,19.56,-0.61,-0.13,9.58,0.0,-3.62,-0.75,20.737,-103.4547,A
8.3,19.35,-0.6,-0.13,9.57,0.0,-3.62,-0.75,20.737,-103.4547,A
8.21,19.44,-0.59,-0.12,9.55,0.0,-11.62,-0.75,20.737,-103.4547,A
8.24,19.5,-0.59,-0.13,9.58,0.0,-11.62,-0.75,20.737,-103.4547,A
8.3,19.35,1.05,-0.11,9.5,0.0,-3.62,-0.75,20.737,-103.4638,A
8.24,19.44,-0.05,-3.71,9.16,354.69,-0.38,-22.88,20.737,-103.4638,A
8.23,19.5,1.18,-6.84,7.37,16.19,6.25,-36.75,20.737,-103.4638,A
8.25,19.38,-0.33,-4.54,8.1,44.06,3.31,-36.19,20.737,-103.4638,A
8.27,19.46,-0.25,-2.95,7.73,54.62,-8.69,-23.69,20.737,-103.4638,A
8.15,19.46,-0.72,-2.3,9.33,96.06,-3.38,-15.5,20.737,-103.4638,A
8.3,19.33,326.97,325.36,9.44,96.0,-3.69,-14.94,20.737,-103.4638,A
8.29,19.48,-0.72,325.36,9.49,96.0,-3.81,-14.62,20.737,-103.4547,A
8.22,19.38,326.97,325.39,9.48,95.94,-11.94,2033.56,20.737,-103.4547,A
8.27,19.28,-0.73,-2.31,9.47,95.94,-3.94,2033.56,20.737,-103.4547,A
8.25,19.42,-0.73,-2.3,9.45,95.94,-3.94,-14.44,20.737,-103.4547,A
8.23,19.45,-0.7,-2.29,9.45,95.94,-3.94,-14.44,20.737,-103.4547,A
8.23,19.34,326.97,-2.3,9.44,95.94,-3.94,-14.44,20.737,-103.4547,A
8.29,19.46,326.95,325.4,9.48,95.94,-11.94,-14.44,20.737,-103.4547,A
8.25,19.49,326.96,325.41,9.47,95.94,-11.94,-14.44,20.737,-103.4547,A
8.23,19.28,-0.72,-2.31,9.44,95.94,-3.94,-14.44,20.737,-103.4547,A
8.26,19.38,-0.71,-2.28,9.5,95.94,-3.94,-14.44,20.737,-103.4547,A
8.25,19.48,-0.71,-2.26,9.47,95.94,-3.94,-14.44,20.737,-103.4547,A
8.26,19.26,326.95,325.4,9.47,95.94,-3.94,-14.44,20.737,-103.4547,A
8.26,19.42,-0.7,-2.28,9.46,95.94,-3.94,2033.56,20.737,-103.4547,A
8.21,19.49,-0.7,325.41,9.46,95.94,-3.94,2033.56,20.737,-103.4547,A
8.3,19.31,-0.68,-2.28,9.45,95.94,-3.94,2033.56,20.7369,-103.4546,A
8.23,19.42,-0.72,-2.29,9.49,95.94,-11.94,-14.44,20.7369,-103.4546,A
8.26,19.54,-0.72,-2.28,9.44,95.94,-3.94,-14.44,20.7369,-103.4546,A
8.27,19.28,-0.71,-2.28,9.47,95.94,-3.94,-14.44,20.7369,-103.4546,A
8.23,19.44,-0.72,325.41,9.48,95.94,-3.94,-14.44,20.7369,-103.4546,A
8.23,19.48,-0.73,-2.25,9.45,95.94,-3.94,-14.44,20.7369,0.0,A
8.22,19.31,326.95,325.4,9.45,95.94,-3.94,-14.44,20.7369,0.0,A
8.24,19.5,326.73,-0.04,9.67,72.06,-5.31,0.56,20.7369,0.0,A
8.17,19.57,-0.94,-0.05,9.67,72.06,-5.31,0.56,20.7369,0.0,A
8.26,19.33,-0.94,-0.04,9.66,72.06,2042.69,0.56,20.7369,0.0,A
8.23,19.49,-0.97,-0.03,9.67,72.06,-5.31,0.56,20.7369,0.0,A
8.12,19.5,-0.96,-0.04,9.67,72.06,-5.31,0.56,20.7369,0.0,A
8.21,19.33,326.74,-0.05,9.66,72.06,-5.31,0.56,20.7369,0.0,A
8.23,19.46,-0.96,-0.05,9.64,72.06,-5.31,0.56,20.7369,0.0,A
8.18,19.61,-0.96,-0.06,9.69,72.06,2034.69,0.56,20.7369,0.0,A
8.2,19.27,-0.95,-0.06,9.66,72.06,-5.31,0.56,20.7369,0.0,A
8.17,19.45,-0.97,-0.04,9.64,72.06,-5.31,0.56,20.7369,0.0,A
8.18,19.57,326.72,-0.05,9.67,72.06,-5.31,0.56,20.7369,-103.4546,A
8.18,19.33,-0.94,-0.03,9.67,72.06,-5.31,0.56,20.7369,-103.4546,A
8.27,19.46,-0.96,-0.05,9.67,72.06,-5.31,0.56,20.7369,-103.4546,A
8.24,19.53,-0.95,-0.02,9.63,72.06,-5.31,0.56,20.7369,-103.4546,A
8.28,19.34,-0.95,-0.05,9.66,72.06,-5.31,0.56,20.7369,-103.4546,A
8.24,19.44,-0.97,-0.07,9.69,72.06,-5.31,0.56,20.7369,-103.4546,A
8.21,19.53,-0.97,-0.05,9.68,72.06,-13.31,0.56,20.7369,-103.4546,A
8.29,19.38,-0.96,-0.05,9.65,72.06,-5.31,0.56,20.7369,-103.4546,A
8.24,19.46,-0.97,-0.05,9.66,72.06,-5.31,0.56,20.7369,-103.4546,A
8.22,19.48,-0.95,-0.05,9.67,72.06,-5.31,0.56,20.7369,-103.4546,A
8.29,19.35,-0.96,-0.03,9.67,72.06,-5.31,0.56,20.7369,-103.4546,A
8.24,19.44,326.72,-0.07,9.64,72.06,-13.31,0.56,20.7369,-103.4546,A
8.22,19.52,-0.95,-0.03,9.68,72.06,-13.31,0.56,20.7369,-103.4546,A
8.21,19.35,-0.96,-0.04,9.66,72.06,-5.31,0.56,20.7369,-103.4546,A
8.28,19.49,326.71,-0.05,9.67,72.06,-5.31,0.56,20.7369,-103.4546,A
8.23,19.5,326.75,-0.07,9.66,72.06,2042.69,0.56,20.7369,-103.4546,A
8.27,19.35,-0.95,-0.04,9.69,72.06,2042.69,0.56,20.7369,-103.4546,A
8.27,19.45,-0.97,-0.04,9.68,72.06,-5.31,0.56,20.7369,-103.4546,A
8.2,19.5,-0.95,-0.05,9.66,72.06,2042.69,0.56,20.7369,-103.4546,A
8.25,19.33,-0.95,-0.06,9.67,72.06,-5.31,0.56,20.7369,-103.4546,A
8.28,19.42,-0.96,-0.06,9.67,72.06,-5.31,0.56,20.7369,-103.4546,A
8.25,19.52,-0.95,-0.05,9.63,72.06,-5.31,0.56,20.7369,-103.4546,A
8.27,19.35,326.72,-0.04,9.65,72.06,-5.31,0.56,20.7369,1.05,A
8.18,19.44,-0.96,-0.05,9.66,72.06,2034.69,0.56,20.7369,1.05,A
8.25,19.53,327.0,-0.08,9.69,75.12,-3.19,0.19,20.7371,-103.4546,A
8.24,19.3,-0.69,-0.08,9.66,75.12,-11.25,0.19,20.7371,-103.4546,A
8.19,19.48,-0.71,-0.09,9.67,75.12,-3.25,0.19,20.7371,-103.4546,A
8.23,19.5,326.99,-0.08,9.7,75.12,-3.25,0.19,20.7371,-103.4546,A
8.21,19.33,-0.69,-0.07,9.67,75.12,-3.25,0.19,20.7371,-103.4546,A
8.24,19.38,-0.7,-0.07,9.65,75.12,-11.25,0.19,20.7371,-103.4546,A
8.22,19.5,-0.77,-0.09,9.67,75.12,-11.44,0.19,20.7371,-103.4546,A
8.28,19.35,-1.75,-0.88,9.81,69.38,-3.94,-0.62,20.7371,-103.4546,A
8.24,19.39,-2.06,-1.66,9.59,38.06,-5.56,-2.12,20.7371,-103.4546,A
8.17,19.5,-1.58,-0.38,9.71,41.56,-7.69,0.19,20.7371,-103.4546,A
8.28,19.37,-1.58,-0.38,9.78,42.94,2032.06,-0.69,20.7371,-103.4546,A
8.27,19.42,-1.52,-0.39,9.7,43.0,-8.12,-1.19,20.7371,-103.4546,A
8.21,19.49,-1.54,-0.41,9.65,43.06,-8.44,-1.62,20.7371,-103.4546,A
8.25,19.31,-1.52,-0.38,9.66,43.06,-8.5,-1.75,20.7371,-103.4546,A
8.23,19.44,-1.58,-0.37,9.74,43.06,-8.5,-1.81,20.7371,-103.4546,A
8.21,19.52,-1.53,-0.38,9.59,43.06,-8.56,-1.81,20.7371,-103.4546,A
8.24,19.28,-1.55,-0.37,9.6,43.12,-8.56,-1.81,20.7371,-103.4546,A
8.29,19.42,-1.4,1.19,9.37,49.31,2040.88,-2.5,20.7371,-103.4546,A
8.25,19.53,-1.43,-0.24,9.64,63.94,-7.69,-2.44,20.7371,-103.4546,A
8.26,19.35,-1.44,-0.23,9.65,63.88,-7.81,-2.19,20.7371,-103.4546,A
8.26,19.41,-1.41,-0.25,9.65,63.81,-7.88,-2.12,20.7371,-103.4546,A
8.19,19.52,-1.43,-0.24,9.65,63.81,-8.0,-1.94,20.7371,-103.4546,A
8.26,19.33,-1.42,-0.23,9.63,63.81,-8.0,-2.0,20.7371,-103.4546,A
8.23,19.38,-1.41,-0.14,9.55,52.31,-6.44,-2.56,20.7371,-103.4546,A
8.26,19.48,-1.02,-0.51,9.67,49.44,2034.38,-2.69,20.7371,-103.4546,A
8.29,19.34,-1.06,-0.45,9.67,46.44,-5.88,-2.44,20.7371,-103.4546,A
8.21,19.42,-1.04,-0.5,9.65,46.69,-5.62,-2.81,20.7371,-103.4546,A
8.23,19.44,-1.03,-0.51,9.67,46.69,2034.38,-2.81,20.7371,-103.4546,A
8.21,19.3,-0.87,-0.57,9.29,46.81,-5.75,-2.69,20.7371,-103.4546,A
8.27,19.94,-2.91,-2.91,9.85,51.38,-5.81,-3.0,20.7371,-103.4546,A
8.22,19.46,-1.23,-0.41,9.64,74.56,-6.44,-3.94,20.7371,-103.4546,X
8.27,19.34,-1.23,-0.39,9.65,74.5,-6.69,-3.38,20.7371,-103.4546,X
8.28,19.44,326.45,-0.41,9.66,74.5,-6.81,-3.12,20.7371,-103.4546,X
8.17,19.45,-1.23,-0.39,9.65,74.5,-6.88,-3.06,20.7371,-103.4546,X
8.28,19.26,-1.24,-0.38,9.62,74.5,-14.88,-3.06,20.7371,-103.4546,X
8.27,19.44,-1.23,-0.41,9.64,74.5,-6.88,-3.06,20.7371,-103.4546,X
8.24,19.48,326.46,-0.38,9.66,74.5,2041.12,-3.06,20.7371,-103.4546,X
8.26,19.31,-1.2,-0.39,9.66,74.5,-14.88,-3.06,20.7371,-103.4546,X
8.23,19.44,-1.4,-0.37,9.43,96.81,-7.38,-3.81,20.7371,-103.4546,X
8.27,19.49,-1.47,-0.32,9.63,96.75,-7.88,-2.88,20.7371,-103.4546,X
8.28,19.3,-1.43,-0.31,9.67,96.69,-8.06,-2.62,20.7371,-103.4546,A
8.27,19.45,-1.41,-0.32,9.65,96.69,-8.12,-2.5,20.7371,-103.4546,A
8.23,19.48,-1.45,-0.3,9.66,96.69,-8.12,-2.5,20.7371,-103.4546,A
8.19,19.35,-1.44,-0.32,9.66,96.69,-8.12,-2.5,20.7371,-103.4546,A
8.25,19.41,-1.43,-0.32,9.63,96.69,-8.12,-2.5,20.7371,-103.4546,A
8.21,19.54,-1.43,-0.31,9.67,96.69,-8.12,-2.5,20.7371,-103.4546,A
8.27,19.37,-1.43,-0.3,9.65,96.69,-8.12,-2.5,20.7371,-103.4546,A
8.26,19.45,-1.43,-0.32,9.63,96.69,-8.12,-2.5,20.7371,-103.4546,A
8.2,19.53,-2.08,-0.82,10.02,98.5,-8.12,-2.5,20.7371,-103.4546,A
8.28,19.27,-1.51,0.75,10.1,105.38,-8.0,1.69,20.7371,-103.4546,A
8.23,19.46,-1.31,2.89,9.18,102.94,2041.5,18.0,20.7371,-103.4546,A
8.21,19.46,-1.58,-0.4,9.22,102.0,-9.25,-2.19,20.7371,-103.4546,A
8.28,19.34,0.84,325.52,9.5,95.5,2.75,-14.88,20.7371,-103.4546,A
8.27,19.42,0.27,326.56,7.27,95.56,-7.06,-3.12,20.7371,-103.4546,A
8.24,19.48,-1.16,-0.52,9.66,96.31,-6.75,-3.25,20.7371,-103.4546,A
8.23,19.35,326.5,-0.56,9.67,96.31,-6.75,-3.25,20.7371,-103.4546,A
8.3,19.45,-1.2,-0.55,9.62,96.31,2033.25,-3.25,20.7371,-103.4546,A
8.2,19.46,-1.17,-0.53,9.67,96.31,-6.75,-3.25,20.7371,-103.4546,A
8.27,19.33,-1.2,-0.53,9.68,96.31,-6.75,-3.25,20.7371,-103.4546,A
8.28,19.46,-1.16,-0.54,9.66,96.31,-14.75,-3.25,20.7371,-103.4546,A
8.22,19.54,-1.21,-0.55,9.65,96.31,2041.25,-3.25,20.7371,-103.4546,A
8.26,19.33,326.5,-0.55,9.66,96.31,-6.75,-3.25,20.7371,-103.4546,A
8.27,19.42,-1.18,-0.55,9.68,96.31,2033.25,-3.25,20.7371,-103.4546,A
8.26,19.5,-1.19,-0.53,9.63,96.31,-6.75,-3.25,20.7371,-103.4546,A
8.27,19.37,-1.19,-0.54,9.63,96.31,-6.75,-3.25,20.7371,-103.4546,A
8.24,19.37,-1.19,-0.54,9.67,96.31,-6.75,-3.25,20.7371,-103.4546,A
8.25,19.54,326.48,-0.52,9.64,96.31,-6.75,-3.25,20.7371,-103.4546,A
8.25,19.39,326.48,-0.52,9.65,96.31,-14.75,-3.25,20.7371,-103.4546,A
8.25,19.37,-1.18,-0.52,9.65,96.31,-6.75,-3.25,20.7371,-103.4546,A
8.25,19.53,-1.19,-0.52,9.65,96.31,2033.25,-3.25,20.7371,-103.4547,A
8.3,19.34,-1.21,-0.53,9.69,96.31,-14.75,-3.25,20.7371,-103.4547,A
8.26,19.39,-1.17,-0.53,9.66,96.31,-6.75,-3.25,20.7371,-103.4547,A
8.17,19.52,-1.18,-0.54,9.67,96.31,-14.75,-3.25,20.7371,-103.4547,A
8.3,19.3,-1.22,-0.52,9.66,96.31,-6.75,-3.25,20.7371,-103.4547,A
8.26,19.45,-1.18,-0.55,9.67,96.31,-14.75,-3.25,20.7371,-103.4547,A
8.22,19.48,-1.19,-0.53,9.65,96.31,2041.25,-3.25,20.7371,-103.4547,A
8.3,19.33,-1.2,-0.52,9.64,96.31,-6.75,-3.25,20.7371,-103.4547,A
8.23,19.41,-1.18,-0.55,9.65,96.31,-6.75,-3.25,20.7371,-103.4547,A
8.25,19.52,-1.21,-0.53,9.63,96.31,2033.25,-3.25,20.7371,-103.4547,A
8.25,19.33,-1.19,-0.52,9.65,96.31,-6.75,-3.25,20.7371,-103.4547,A
8.29,19.42,326.52,-0.54,9.64,96.31,-6.75,-3.25,20.7371,-103.4547,A
8.23,19.48,-1.18,-0.53,9.67,96.31,-6.75,-3.25,20.7371,-103.4547,A
8.25,19.33,326.5,-0.54,9.66,96.31,-6.75,-3.25,20.7371,-103.4547,A
8.29,19.45,-1.18,-0.55,9.64,96.31,-14.75,-3.25,20.7371,-103.4547,A
8.18,19.53,-1.16,-0.54,9.67,96.31,-6.75,-3.25,20.7371,-103.4547,A
8.28,19.27,-1.18,-0.54,9.66,96.31,-6.75,-3.25,20.7371,-103.4547,A
8.27,19.42,-1.18,-0.52,9.67,96.31,-14.75,-3.25,20.7371,-103.4547,A
8.24,19.54,-1.19,-0.54,9.63,96.31,-6.75,-3.25,20.7371,-103.4547,A
8.26,19.35,326.49,-0.53,9.64,96.31,-6.75,-3.25,20.7371,-103.4547,A
8.24,19.45,-1.18,-0.56,9.67,96.31,2033.25,-3.25,20.7371,-103.4547,A
8.25,19.5,-1.18,-0.53,9.64,96.31,-6.75,-3.25,2.0667,-103.4547,A
8.3,19.35,326.5,-0.55,9.67,96.31,-6.75,-3.25,2.0667,-103.4547,A
8.26,19.44,-1.16,-0.54,9.63,96.31,2033.25,-3.25,2.0667,-103.4547,A
8.26,19.49,-1.19,-0.54,9.64,96.31,-6.75,-3.25,2.0667,-103.4547,A
8.23,19.34,-1.2,-0.54,9.62,96.31,-6.75,-3.25,2.0667,-103.4547,A
8.27,19.44,-1.18,-0.52,9.66,96.31,-6.75,-3.25,20.7371,-103.4547,A
8.21,19.45,-1.18,-0.53,9.66,96.31,-14.75,-3.25,20.7371,-103.4547,A
8.3,19.35,-1.18,-0.52,9.68,96.31,-6.75,-3.25,20.7371,-103.4547,A
8.29,19.46,-1.19,-0.52,9.64,96.31,-6.75,-3.25,20.7371,-103.4547,A
8.23,19.46,-1.16,-0.52,9.65,96.31,2041.25,-3.25,20.7371,-103.4547,A
8.3,19.38,-1.17,-0.54,9.65,96.31,-6.75,-3.25,20.7371,-103.4547,A
8.25,19.44,-1.2,-0.53,9.66,96.31,-6.75,-3.25,20.7371,-103.4547,A
8.23,19.5,-1.2,-0.53,9.65,96.31,-14.75,-3.25,20.7371,-103.4547,A
8.26,19.31,-1.19,-0.54,9.66,96.31,-6.75,-3.25,20.7371,-103.4546,A
8.29,19.42,-1.19,-0.53,9.66,96.31,-6.75,-3.25,20.7371,-103.4546,A
8.21,19.54,-1.17,-0.52,9.66,96.31,-6.75,-3.25,20.7371,-103.4546,A
8.19,19.35,-1.19,-0.54,9.66,96.31,-14.75,-3.25,20.7371,-103.4546,A
8.27,19.44,-1.21,-0.52,9.67,96.31,-6.75,-3.25,20.7371,-103.4546,A
8.23,19.5,-1.19,-0.53,9.65,96.31,-6.75,-3.25,20.7371,-103.4546,A
8.27,19.34,-1.17,-0.54,9.67,96.31,-6.75,-3.25,20.7371,-103.4546,A
8.27,19.44,-1.21,-0.52,9.64,96.31,2033.25,-3.25,20.7371,-103.4546,A
8.23,19.53,-1.2,-0.54,9.65,96.31,-6.75,-3.25,20.7371,-103.4546,A
8.28,19.34,-1.16,-0.54,9.63,96.31,2033.25,-3.25,20.7371,-103.4546,A
8.2,19.41,-1.17,-0.55,9.63,96.31,-14.75,-3.25,20.7371,-103.4546,A
8.27,19.53,326.5,-0.51,9.66,96.31,2033.25,-3.25,20.7371,-103.4546,A
8.28,19.28,-1.2,-0.53,9.66,96.31,2033.25,-3.25,20.7371,-103.4546,A
8.25,19.42,-1.17,-0.52,9.64,96.31,-6.75,-3.25,20.7371,-103.4546,A
8.24,19.49,-1.18,-0.54,9.65,96.31,-14.75,-3.25,20.7371,-103.4545,A
8.23,19.35,326.49,-0.52,9.65,96.31,-6.75,-3.25,20.7371,-103.4545,A
8.26,19.44,326.49,-0.54,9.65,96.31,-14.75,-3.25,20.7371,-103.4545,A
8.22,19.46,326.5,-0.53,9.65,96.31,-6.75,-3.25,20.7371,-103.4545,A
8.28,19.34,-1.17,-0.55,9.67,96.31,-6.75,-3.25,20.7371,-103.4545,A
8.27,19.48,-1.2,-0.54,9.65,96.31,-14.75,-3.25,20.7371,-103.4545,A
8.18,19.48,326.48,-0.53,9.64,96.31,-6.75,-3.25,20.7371,-103.4545,A
8.28,19.28,-1.2,-0.54,9.67,96.31,2041.25,-3.25,20.7371,-103.4545,A
8.24,19.39,-1.18,-0.54,9.64,96.31,-6.75,-3.25,20.7371,-103.4545,A
8.23,19.49,-1.16,-0.54,9.63,96.31,-14.75,-3.25,20.7371,-103.4545,A
8.26,19.34,-1.18,-0.53,9.66,96.31,2041.25,-3.25,20.7371,-103.4545,A
8.24,19.42,-1.18,-0.53,9.65,96.31,-6.75,-3.25,20.7371,-103.4545,A
8.26,19.52,-1.18,-0.54,9.65,96.31,2033.25,-3.25,20.7371,-103.4545,A
8.2,19.33,-1.2,-0.54,9.66,96.31,-6.75,-3.25,20.7371,-103.4545,A
8.27,19.38,-1.16,-0.54,9.65,96.31,-6.75,-3.25,20.7371,-103.4545,A
8.26,19.48,-1.18,-0.54,9.64,96.31,2041.25,-3.25,20.7371,-103.4545,A
8.25,19.3,-1.16,-0.55,9.63,96.31,-6.75,-3.25,20.7371,-103.4545,A
8.27,19.39,-1.2,-0.54,9.64,96.31,-6.75,-3.25,20.7371,-103.4545,A
8.24,19.49,-1.19,-0.53,9.65,96.31,-14.75,-3.25,20.7371,-103.4545,A
8.3,19.35,-1.18,-0.53,9.65,96.31,-6.75,-3.25,20.7371,-103.4545,A
8.25,19.44,326.5,-0.51,9.66,96.31,-6.75,-3.25,20.7371,-103.4545,A
8.25,19.48,-1.19,-0.53,9.65,96.31,-6.75,-3.25,20.7371,-103.4545,A
8.27,19.35,326.49,-0.54,9.67,96.31,-6.75,-3.25,0.3333,20.737,A
8.22,19.44,326.47,-0.55,9.65,96.31,-14.75,-3.25,0.3333,0.0,A
8.16,19.52,-1.21,-0.53,9.66,96.31,2041.25,-3.25,0.3333,0.0,A
8.2,19.35,-1.18,-0.53,9.64,96.31,2041.25,-3.25,0.3333,0.0,A
8.23,19.44,-1.18,-0.52,9.64,96.31,-6.75,-3.25,0.3333,0.0,A
8.16,19.5,-1.19,-0.54,9.66,96.31,-6.75,-3.25,0.3333,0.0,A
8.27,19.35,326.5,-0.51,9.67,96.31,2041.25,-3.25,0.3333,0.0,A
8.21,19.44,-1.18,-0.54,9.66,96.31,-6.75,-3.25,0.3333,0.0,A
8.09,19.52,-1.18,-0.53,9.68,96.31,-6.75,-3.25,0.3333,0.0,A
8.21,19.31,326.47,-0.53,9.67,96.31,2041.25,-3.25,0.3333,0.0,A
8.22,19.44,-1.17,-0.53,9.67,96.31,-14.75,-3.25,0.3333,0.0,X
8.2,19.63,-1.18,-0.54,9.66,96.31,-6.75,-3.25,0.3333,0.0,X
8.22,19.35,326.52,-0.54,9.66,96.31,-6.75,-3.25,0.3333,0.0,X
8.2,19.45,-0.95,-0.66,9.76,96.38,-4.94,-4.19,0.3333,0.0,X
8.2,19.53,-1.12,-0.54,9.83,96.44,-5.88,-3.56,0.3333,0.0,X
8.2,19.3,-1.04,-0.58,9.66,96.44,-5.88,-3.56,20.7333,0.0,A
8.2,19.41,326.62,-0.58,9.77,96.44,-5.75,-3.62,20.7333,0.0,A
8.13,19.49,-0.92,-0.69,9.36,96.38,-5.31,-3.88,20.7333,20.7369,A
8.24,19.34,-1.01,-0.61,9.61,96.44,-5.75,-3.56,20.7333,20.7369,A
8.26,19.37,326.68,-0.62,9.64,96.44,-13.44,-3.75,0.0333,20.7369,A
8.16,19.53,-1.04,-0.59,9.67,96.44,-5.81,-3.5,0.0333,20.7369,A
8.29,19.33,326.5,-0.64,9.98,96.44,2042.19,-3.5,0.0333,20.7369,A
8.25,19.35,1.76,2.0,7.08,106.81,22.81,16.75,0.0333,20.7369,A
8.2,19.48,7.17,1.15,-4.32,179.19,66.94,68.75,0.0333,20.7369,A
8.3,19.27,1.6,-4.49,9.41,113.19,5.25,-26.69,0.0333,20.7369,A
8.24,19.42,1.96,-2.84,8.96,112.25,12.56,-18.31,0.0333,20.7369,A
8.21,19.46,5.87,1.03,8.35,107.38,33.12,8.25,0.0333,20.7369,A
8.26,19.28,4.64,-4.59,-6.4,167.75,50.75,-137.44,20.7368,20.7369,A
8.27,19.38,2.33,-3.99,-7.82,136.75,21.94,-151.56,20.7368,20.7369,A
8.23,19.49,7.6,-0.45,4.91,131.25,63.56,-30.12,20.7368,20.7369,X
8.22,19.91,2.31,0.69,8.09,47.88,22.0,5.38,20.7368,20.7369,X
8.3,19.42,0.03,-0.45,9.5,46.0,0.19,-2.81,20.7368,20.7369,X
8.21,19.5,-0.77,-1.17,9.82,53.06,-11.75,-2.25,20.7368,20.7369,X
8.29,19.28,-0.8,-0.55,9.67,56.62,-3.88,-2.56,20.7368,20.7369,X
8.24,19.39,-0.81,-0.55,9.66,58.12,-4.06,-2.69,20.7368,20.7369,X
8.26,19.52,-0.79,-0.55,9.66,58.81,2035.81,-2.81,20.7368,20.7369,X
8.26,19.27,-0.78,-0.56,9.68,58.81,-4.19,-2.81,20.7368,20.7369,X
8.21,19.41,326.92,-0.55,9.68,58.81,-4.19,-2.81,20.7368,20.7369,X
8.25,19.52,-0.78,-0.53,9.65,58.81,-4.19,-2.81,20.7368,20.7369,X
8.31,19.34,-0.8,-0.56,9.66,58.81,2043.81,-2.81,20.7369,-103.4548,A
8.24,19.37,-0.8,-0.55,9.67,58.81,2035.81,-2.81,20.7369,-103.4548,A
8.23,19.5,326.89,-0.56,9.68,58.81,-4.19,-2.81,20.7369,-103.4548,A
8.27,19.33,326.86,-0.56,9.71,58.81,2035.81,-2.81,20.7369,-103.4548,A
8.24,19.35,-0.81,-0.54,9.68,58.81,-12.19,-2.81,20.7369,-103.4548,A
8.17,19.49,-0.79,-0.56,9.68,58.81,2043.81,-2.81,20.7369,-103.4548,A
8.28,19.34,-0.81,-0.55,9.67,58.81,-4.19,-2.81,20.7369,-103.4548,A
8.25,19.41,-0.79,-0.57,9.65,58.81,-4.19,-2.81,20.7369,-103.4548,A
8.23,19.48,-0.78,-0.54,9.67,58.81,-4.19,-2.81,20.7369,-103.4548,A
8.27,19.35,-0.8,-0.55,9.69,58.81,-4.19,-2.81,20.7369,-103.4548,A
8.25,19.46,-0.81,-0.55,9.67,58.81,-4.19,-2.81,20.7369,-103.4548,A
8.2,19.5,326.87,-0.53,9.66,58.81,2043.81,-2.81,20.7369,-103.4548,A
8.2,19.28,-0.81,-0.57,9.67,58.81,2035.81,-2.81,20.7369,-103.4548,A
8.27,19.44,-0.78,-0.53,9.66,58.81,-4.19,-2.81,20.7369,-103.4548,A
8.23,19.49,-0.79,-0.54,9.65,58.81,2035.81,-2.81,20.7369,-103.4548,A
8.2,19.26,-0.8,-0.57,9.69,58.81,-4.19,-2.81,20.7369,-103.4548,A
8.27,19.46,-0.81,-0.55,9.69,58.81,-4.19,-2.81,20.7369,-103.4548,A
8.21,19.5,-0.79,-0.54,9.67,58.81,-4.19,-2.81,20.7369,-103.4548,A
8.25,19.31,-0.81,-0.57,9.65,58.81,-4.19,-2.81,20.7369,-103.4548,A
8.27,19.42,326.88,-0.54,9.67,58.81,-4.19,-2.81,0.0,0.0,A
8.13,19.57,326.89,-0.56,9.66,58.81,-4.19,-2.81,0.0,0.0,A
8.16,19.33,326.88,-0.56,9.66,58.81,-4.19,-2.81,0.0,0.0,A
8.14,19.44,-0.81,-0.53,9.66,58.81,-12.19,-2.81,0.0,0.0,A
8.16,19.54,-0.8,-0.56,9.66,58.81,-4.19,-2.81,0.0,0.0,A
8.2,19.34,326.87,-0.55,9.69,58.81,-4.19,-2.81,0.0,0.0,A
8.16,19.44,-0.81,-0.56,9.66,58.81,2043.81,-2.81,0.0,0.0,A
8.14,19.53,-0.82,-0.54,9.66,58.81,-4.19,-2.81,0.0,0.0,A
8.18,19.39,-0.79,-0.56,9.67,58.81,-4.19,-2.81,0.0,0.0,A
8.17,19.45,-0.82,-0.55,9.69,58.81,-4.19,-2.81,0.0,0.0,A
8.11,19.53,-0.8,-0.55,9.68,58.81,-4.19,-2.81,0.0,0.0,A
8.18,19.35,-0.79,-0.54,9.69,58.81,-4.19,-2.81,0.0,0.0,A
8.18,19.5,326.87,-0.55,9.64,58.81,-4.19,-2.81,20.7369,-10.6214,A
8.21,19.39,326.89,-0.54,9.68,58.81,-12.19,-2.81,20.7369,-10.6214,A
8.27,19.34,-0.79,-0.56,9.69,58.81,-12.19,-2.81,20.7369,-10.6214,A
8.23,19.41,326.88,-0.56,9.67,58.81,-4.19,-2.81,20.7369,-10.6214,A
8.2,19.46,326.89,-0.56,9.68,58.81,-12.19,-2.81,20.7369,-10.6214,A
8.25,19.33,-0.78,-0.56,9.67,58.81,-12.19,-2.81,20.7369,-103.4547,A
8.28,19.42,-0.8,-0.55,9.67,58.81,-4.19,-2.81,20.7369,-103.4547,A
8.24,19.52,-0.79,-0.55,9.67,58.81,2043.81,-2.81,20.7369,-103.4547,A
8.23,19.3,-0.81,-0.54,9.66,58.81,-4.19,-2.81,20.7369,-103.4547,A
8.29,19.44,-0.79,-0.54,9.64,58.81,-4.19,-2.81,20.7369,-103.4547,A
8.26,19.5,-0.8,-0.55,9.65,58.81,-12.19,-2.81,20.737,-103.4547,A
8.25,19.28,-0.83,-0.56,9.66,58.81,2043.81,-2.81,20.737,-103.4547,A
8.25,19.44,-0.8,-0.55,9.66,58.81,-4.19,-2.81,20.737,-103.4547,A
8.18,19.48,-0.79,-0.56,9.66,58.81,-12.19,-2.81,20.737,-103.4547,A
8.27,19.33,-0.8,-0.55,9.69,58.81,-4.19,-2.81,20.737,-103.4547,A
8.21,19.42,-0.81,-0.54,9.67,58.81,-4.19,-2.81,20.737,-103.4547,A
8.26,19.52,-0.81,-0.55,9.67,58.81,-4.19,-2.81,20.7371,-103.4546,A
8.3,19.37,-0.79,-0.56,9.68,58.81,2035.81,-2.81,20.7371,-103.4546,A
8.21,19.38,-0.81,-0.54,9.65,58.81,-4.19,-2.81,20.7371,-103.4546,A
8.23,19.5,326.88,-0.55,9.66,58.81,-4.19,-2.81,20.7371,-103.4545,A
8.26,19.35,-0.79,-0.55,9.66,58.81,2035.81,-2.81,20.7371,-103.4545,A
8.25,19.39,-0.81,-0.54,9.65,58.81,-4.19,-2.81,20.7371,-103.4545,A
8.23,19.46,-0.81,-0.56,9.67,58.81,-12.19,-2.81,20.7371,-103.4545,A
8.29,19.3,-0.8,-0.56,9.67,58.81,-4.19,-2.81,20.7371,-103.4545,A
8.26,19.45,-0.8,-0.55,9.69,58.81,-4.19,-2.81,20.7371,-103.4545,A
8.18,19.53,-0.79,-0.56,9.68,58.81,-4.19,-2.81,20.7371,-103.4545,A
8.26,19.35,-0.78,-0.53,9.66,58.81,-12.19,-2.81,20.7371,-103.4545,A
8.27,19.41,-0.76,-0.56,9.66,58.81,-4.19,-2.81,20.7371,-103.4545,A
8.23,19.49,326.87,-0.55,9.67,58.81,2035.81,-2.81,20.7371,-103.4545,A
8.27,19.33,-0.81,-0.55,9.65,58.81,-4.19,-2.81,20.7371,-103.4545,X
8.27,19.41,-0.81,-0.56,9.67,58.81,-4.19,-2.81,20.7371,-103.4545,X
8.26,19.53,-0.79,-0.54,9.67,58.81,-4.19,-2.81,20.7371,-103.4545,X
8.25,19.26,-0.79,-0.53,9.69,58.81,-4.19,-2.81,20.7371,-103.4545,X
8.3,19.44,-0.83,-0.56,9.68,58.81,-4.19,-2.81,20.7371,-103.4545,A
8.24,19.49,326.83,-0.51,9.67,58.81,-12.19,-2.81,20.7371,-103.4545,A
8.21,19.31,-0.79,-0.54,9.64,58.81,-4.19,-2.81,20.7371,-103.4545,A
8.26,19.44,-0.8,-0.55,9.65,58.81,-4.19,-2.81,20.7371,-103.4545,A
8.21,19.5,-0.8,-0.58,9.67,58.81,-4.19,-2.81,20.7371,-103.4545,A
8.29,19.35,-0.81,-0.54,9.66,58.81,-4.19,-2.81,20.7371,-103.4545,A
8.25,19.44,-0.82,-0.56,9.65,58.81,-4.19,-2.81,20.7371,-103.4545,A
8.24,19.53,-0.78,-0.56,9.66,58.81,2043.81,-2.81,20.7371,-103.4545,A
8.3,19.35,-0.81,-0.54,9.66,58.81,-4.19,-2.75,20.7372,-103.4544,A
8.24,19.45,-0.8,-0.55,9.65,58.81,-4.19,-2.75,20.7372,103.4645,A
8.23,19.44,326.87,-0.55,9.68,58.81,2035.81,-2.75,20.7372,103.4645,A
8.28,19.3,-0.81,-0.52,9.67,58.81,2043.81,-2.75,20.7372,103.4645,A
8.25,19.46,-0.78,-0.53,9.66,58.81,2043.81,-2.75,20.7372,103.4645,A
8.22,19.46,-0.82,-0.55,9.68,58.81,-4.19,-2.75,20.7372,103.4645,A
8.24,19.37,-0.8,-0.55,9.68,58.81,-4.19,-2.75,20.7372,103.4645,A
8.28,19.44,326.86,-0.54,9.67,58.81,-4.19,-2.75,20.7372,103.4645,A
8.14,19.5,-0.79,-0.57,9.66,58.81,-4.19,-2.75,20.7372,103.4645,A
8.25,19.31,-0.8,-0.55,9.67,58.81,-4.19,-2.75,20.7372,103.4645,A
8.29,19.46,-0.79,-0.56,9.67,58.81,2043.81,-2.75,20.7372,103.4645,A
8.22,19.5,-0.82,-0.53,9.68,58.81,-4.19,-2.75,20.7372,103.4645,A
8.26,19.34,326.85,-0.55,9.66,58.81,-4.19,-2.75,20.7372,103.4645,A
8.23,19.46,326.87,-0.55,9.64,58.81,-4.19,-2.75,20.7372,103.4645,A
8.25,19.53,-0.79,-0.55,9.68,58.81,-12.19,-2.75,20.7372,103.4645,A
8.26,19.34,-0.82,-0.55,9.64,58.81,-4.19,-2.75,20.7372,103.4645,A
8.25,19.42,326.87,-0.55,9.66,58.81,2035.81,-2.75,20.7372,103.4645,A
8.22,19.5,-0.81,-0.55,9.68,58.81,-4.19,-2.75,20.7373,-103.4544,A
8.21,19.31,-0.79,-0.57,9.66,58.81,-4.19,-2.75,20.7373,-103.4544,A
8.25,19.44,326.85,-0.55,9.67,58.81,2043.81,-2.75,20.7373,-103.4544,A
8.22,19.46,-0.82,-0.57,9.68,58.81,-4.19,-2.75,20.7373,-103.4544,A
8.3,19.37,-0.8,-0.56,9.67,58.81,-4.19,-2.75,20.7373,-103.4544,A
8.24,19.42,326.89,-0.55,9.66,58.81,2035.81,-2.75,20.7373,-103.4544,A
8.19,19.5,-0.79,-0.55,9.67,58.81,-4.19,-2.75,20.7373,-103.4544,A
8.3,19.37,-0.8,-0.54,9.67,58.81,-4.19,-2.75,20.7373,-103.4544,A
8.15,19.45,-0.83,-0.58,9.57,58.94,2035.75,-2.69,20.7373,-103.4544,A
8.23,19.46,-0.78,-0.52,9.51,58.88,-4.38,-2.44,20.7373,-103.4544,A
8.27,19.31,326.83,-0.46,9.65,58.88,-4.5,-2.5,20.7374,-103.4544,A
8.29,19.46,326.83,-0.49,9.62,58.94,-4.69,-2.44,20.7374,-103.4544,A
8.21,19.48,-0.84,-0.44,9.67,59.0,-4.69,-2.5,20.7374,-103.4544,A
8.21,19.38,326.83,-0.46,9.66,59.0,-4.69,-2.5,20.7374,-103.4544,A
8.27,19.5,-0.84,-0.46,9.65,59.0,2043.25,-2.5,20.7374,-103.4544,A
8.2,19.49,-0.84,-0.46,9.67,59.0,-4.75,-2.5,20.7374,-103.4544,A
8.25,19.33,326.84,-0.46,9.68,59.0,-12.75,-2.5,20.7374,-103.4544,A
8.24,19.41,-0.84,-0.45,9.68,59.0,2043.25,-2.5,20.7374,-103.4544,A
8.17,19.5,326.82,-0.47,9.66,59.0,-4.75,-2.5,20.7374,-103.4544,A
8.25,19.34,-0.84,-0.45,9.69,59.0,2043.25,-2.5,20.7374,-103.4544,A
8.25,19.41,-0.83,-0.46,9.66,59.0,-4.75,-2.5,20.7374,-103.4544,A
8.24,19.5,-0.88,-0.46,9.67,59.0,2035.25,-2.5,20.7374,-103.4544,A
8.26,19.33,-0.86,-0.44,9.64,59.0,-12.75,-2.5,20.7374,-103.4544,A
8.22,19.35,-0.83,-0.46,9.69,59.0,-4.75,-2.5,20.7374,-103.4544,A
8.25,19.52,-0.83,-0.46,9.67,59.0,-4.75,-2.5,20.7374,-103.4544,A
8.23,19.31,-0.85,-0.46,9.65,59.0,-4.75,-2.5,20.7374,-103.4544,A
8.23,19.45,-0.83,-0.46,9.66,59.0,-4.75,-2.5,20.7374,-103.4544,A
8.24,19.49,-0.86,-0.49,9.71,59.0,2035.25,-2.5,20.7374,-103.4544,A
8.28,19.34,-0.86,-0.47,9.66,59.0,-4.75,-2.5,20.7374,-103.4544,A
8.24,19.48,326.86,-0.46,9.72,59.0,-4.75,-2.5,20.7374,-103.4544,A
8.17,19.52,-0.85,-0.44,9.66,59.0,2035.25,-2.5,20.7374,-103.4544,A
8.29,19.31,-0.84,-0.47,9.7,59.0,-4.75,-2.5,20.7374,-103.4544,A
8.24,19.38,-0.86,-0.43,9.7,59.0,-4.75,-2.5,20.7374,-103.4544,A
8.22,19.53,326.83,-0.46,9.67,59.0,-4.75,-2.5,20.7374,-103.4544,A
8.27,19.33,-0.85,-0.46,9.68,59.0,-4.75,-2.5,20.7374,-103.4544,A
8.2,19.41,326.84,-0.46,9.71,59.0,-4.75,-2.5,20.7374,-103.4544,A
8.2,19.5,-0.84,-0.45,9.67,59.0,-12.75,-2.5,20.7374,-103.4544,A
8.23,19.28,-0.86,-0.45,9.65,59.0,-4.75,-2.5,0.0,0.05,A
8.2,19.45,-0.85,-0.47,9.67,59.0,-4.75,-2.5,0.0,0.05,A
8.14,19.54,-0.88,-0.47,9.68,59.0,-4.75,-2.5,0.0,20.7375,A
8.24,19.35,-0.85,-0.46,9.66,59.0,-4.75,-2.5,0.0,20.7375,A
8.26,19.46,-0.84,-0.47,9.68,59.0,-4.75,-2.5,0.0,20.7375,A
8.16,19.54,-0.84,-0.46,9.65,59.0,2035.25,-2.5,0.0,20.7375,A
8.23,19.33,-0.85,-0.47,9.67,59.0,-4.75,-2.5,0.0,20.7375,X
8.24,19.41,-0.85,-0.45,9.69,59.0,-4.75,-2.5,0.0,20.7375,X
8.21,19.52,-0.85,-0.47,9.67,59.0,2035.25,-2.5,0.0,20.7375,X
8.26,19.35,-0.86,-0.46,9.67,59.0,-4.75,-2.5,0.0,20.7375,X
8.17,19.42,-0.85,-0.46,9.65,59.0,-12.75,-2.5,0.0,20.7375,X
8.21,19.5,-0.84,-0.46,9.66,59.0,-4.75,-2.5,0.0,20.7375,X
8.26,19.34,326.86,-0.46,9.65,59.0,-4.75,-2.5,0.0,20.7375,X
8.23,19.44,-0.83,-0.46,9.67,59.0,-4.75,-2.5,0.0,20.7375,X
8.14,19.46,-0.83,-0.47,9.66,59.0,-4.75,-2.5,0.0,20.7375,X
8.26,19.34,326.84,-0.46,9.67,59.0,-4.75,-2.5,0.0,20.7375,X
8.24,19.45,-0.85,-0.47,9.67,59.0,-4.75,-2.5,0.0,20.7375,X
8.15,19.5,-0.83,-0.46,9.64,59.0,-4.75,-2.5,0.0,20.7375,X
8.27,19.33,326.82,-0.47,9.66,59.0,-4.75,-2.5,0.0,20.7375,X
8.27,19.46,-0.84,-0.47,9.68,59.0,-4.75,-2.5,0.0,20.7375,X
8.19,19.53,-0.84,-0.46,9.67,59.0,-4.75,-2.5,0.0,20.7375,X
8.26,19.3,326.83,-0.45,9.67,59.0,-4.75,-2.5,20.7375,-103.4544,A
8.18,19.45,326.85,-0.47,9.65,59.0,-4.75,-2.5,20.7375,-103.4544,A
8.2,19.53,-0.84,-0.48,9.65,59.0,2035.25,-2.5,20.7375,-103.4544,A
8.25,19.31,-0.83,-0.46,9.67,59.0,-4.75,-2.5,20.7376,-103.4544,A
8.27,19.49,-0.84,-0.47,9.6,59.06,2035.25,-2.5,20.7376,-103.4544,A
8.24,19.49,-0.86,-0.46,9.69,59.06,-4.75,-2.5,20.7376,-103.4544,A
8.22,19.35,326.84,-0.46,9.66,59.06,-4.75,-2.5,20.7376,-103.4544,A
8.28,19.38,-0.84,-0.47,9.67,59.06,2035.25,-2.5,20.7376,-103.4544,A
8.17,19.46,326.83,-0.47,9.68,59.06,-4.75,-2.5,20.7376,-103.4544,A
8.26,19.3,-0.84,-0.46,9.64,59.06,2035.25,-2.5,20.7376,-103.4544,A
8.18,19.45,-0.86,-0.46,9.68,59.06,-4.75,-2.5,0.0167,0.0,A
8.19,19.52,-0.81,-0.46,9.67,59.06,-4.75,-2.5,0.0167,0.0,A
8.22,19.34,326.83,-0.46,9.67,59.06,-4.75,-2.5,0.0167,0.0,A
8.12,19.45,326.84,-0.48,9.67,59.06,-12.75,-2.5,0.0167,0.0,A
8.16,19.56,-0.86,-0.46,9.66,59.06,-4.75,-2.5,0.0167,0.0,A
8.22,19.33,-0.85,-0.46,9.66,59.06,-4.75,-2.5,0.0167,0.0,A
8.19,19.44,326.82,-0.46,9.67,59.06,2035.25,-2.5,0.0167,0.0,A
8.19,19.38,-0.83,-0.46,9.66,59.06,-4.75,-2.5,0.0167,0.0,A
8.22,19.31,-0.84,-0.46,9.67,59.06,-4.75,-2.5,0.0167,0.0,A
8.21,19.49,326.86,-0.47,9.68,59.06,-4.75,-2.5,0.0167,0.0,A
8.1,19.57,326.81,-0.47,9.66,59.06,-4.75,-2.5,0.0167,0.0,A
8.23,19.33,-0.85,-0.46,9.67,59.06,-4.75,-2.5,0.0167,0.0,A
8.21,19.48,326.82,-0.46,9.67,59.06,-4.75,-2.5,20.7375,-103.4545,A
8.2,19.52,-0.83,-0.46,9.66,59.06,-4.75,-2.5,20.7375,-103.4545,A
8.26,19.31,-0.86,-0.46,9.67,59.06,-4.75,-2.5,20.7375,-103.4545,A
8.22,19.44,-0.83,-0.46,9.68,59.06,-4.75,-2.5,20.7375,-103.4545,A
8.24,19.52,-0.85,-0.47,9.66,59.06,2035.25,-2.5,20.7375,-103.4545,A
8.22,19.34,-0.84,-0.47,9.67,59.06,-4.75,-2.5,20.7375,-103.4545,A
8.28,19.42,-0.86,-0.47,9.64,59.06,-4.75,-2.5,20.7375,-103.4545,A
8.26,19.54,-0.85,-0.46,9.65,59.06,-12.75,-2.5,20.7375,-103.4545,A
8.2,19.3,-0.87,-0.46,9.67,59.06,-4.75,-2.5,20.7375,-103.4545,A
8.25,19.38,-0.85,-0.47,9.68,59.06,-4.75,-2.5,20.7375,-10.6212,A
8.22,19.56,-0.83,-0.48,9.67,59.06,-12.75,-2.5,20.7375,-103.4545,A
8.28,19.34,-0.84,-0.46,9.7,59.06,-12.75,-2.5,20.7375,-103.4545,A
8.26,19.42,-0.86,-0.47,9.65,59.06,-4.75,-2.5,20.7375,-103.4545,A
8.26,19.48,326.85,-0.46,9.67,59.06,2035.25,-2.5,20.7375,-103.4545,A
8.28,19.31,-0.87,-0.46,9.66,59.06,-4.75,-2.5,20.7375,-103.4545,A
8.23,19.42,-0.85,-0.47,9.68,59.06,-4.75,-2.5,20.7375,-103.4545,A
8.22,19.45,-0.85,-0.45,9.67,59.06,-4.75,-2.5,20.7375,-103.4545,A
8.29,19.3,-0.85,-0.46,9.67,59.06,-4.75,-2.5,20.7375,-103.4545,A
8.25,19.42,-0.84,-0.49,9.67,59.06,-4.75,-2.5,20.7375,-103.4545,A
8.23,19.53,326.82,-0.49,9.65,59.06,2035.25,-2.5,20.7374,-103.4545,A
8.23,19.34,-0.82,-0.47,9.67,59.06,-4.75,-2.5,20.7374,-103.4545,A
8.28,19.42,-0.85,-0.48,9.67,59.06,-4.75,-2.5,20.7374,-103.4545,A
8.19,19.46,-0.85,-0.46,9.66,59.06,-4.75,-2.5,20.7374,-103.4545,A
8.27,19.26,326.83,-0.47,9.69,59.06,-4.75,-2.5,20.7374,-103.4545,A
8.27,19.44,326.84,-0.44,9.66,59.06,-12.75,-2.5,20.7374,-103.4544,A
8.18,19.45,326.87,-0.46,9.68,59.06,-4.75,-2.5,20.7374,-103.4544,A
8.24,19.31,326.83,-0.46,9.68,59.06,2043.25,-2.5,20.7374,-103.4544,A
8.25,19.41,-0.84,-0.46,9.66,59.06,-12.75,-2.5,20.7374,-103.4544,A
8.24,19.48,-0.85,-0.47,9.66,59.06,-4.75,-2.5,20.7374,-103.4544,A
8.25,19.31,-0.84,-0.47,9.67,59.06,-4.75,-2.5,20.7374,-103.4544,A
8.25,19.42,326.83,-0.43,9.73,59.06,-4.75,-2.5,20.7374,-103.4544,A
8.24,19.5,-1.45,-0.28,9.64,45.69,-8.5,-0.38,20.7374,-103.4544,A
8.18,19.3,-1.48,-0.28,9.62,44.06,-8.5,-0.38,20.7374,-103.4544,A
8.23,19.38,-1.47,-0.26,9.69,43.56,-8.5,-0.38,20.7374,-103.4544,A
8.25,19.52,-1.48,-0.27,9.64,43.56,-8.5,-0.38,20.7374,-103.4544,A
8.28,19.35,-1.47,-0.24,9.62,43.56,-8.5,-0.38,20.7374,-103.4544,A
8.25,19.38,-1.46,-0.25,9.62,43.56,-8.5,-0.38,20.7374,-103.4544,A
8.16,19.5,-1.46,-0.28,9.6,43.56,-8.5,-0.38,20.7374,-103.4544,A
8.27,19.35,-1.46,-0.25,9.66,43.56,-8.5,-0.38,20.7374,-103.4544,A
8.19,19.44,-1.47,-0.26,9.63,43.56,-8.5,-0.38,20.7374,-103.4544,A
8.22,19.49,-1.45,-0.26,9.65,43.56,-8.5,-0.38,20.7374,-103.4544,A
8.28,19.33,-1.48,-0.26,9.68,43.56,-8.5,-0.38,20.7374,-103.4544,X
8.26,19.44,-1.47,-0.28,9.63,43.56,-8.5,-0.38,20.7374,-103.4544,X
8.21,19.52,-1.45,-0.28,9.64,43.56,-8.5,-0.38,20.7374,-103.4544,X
8.26,19.31,-1.45,-0.28,9.66,43.56,-8.5,-0.38,20.7374,-103.4544,X
8.27,19.41,-1.47,-0.26,9.64,43.56,-8.5,-0.38,20.7374,-103.4544,X
8.21,19.48,-1.48,-0.27,9.64,43.56,-8.5,-0.38,20.7374,-103.4544,X
8.23,19.33,-1.46,-0.26,9.64,43.56,-8.5,-0.38,20.7374,-103.4544,X
8.26,19.42,-1.48,-0.25,9.66,43.56,-8.5,-0.38,20.7374,-103.4544,X
8.18,19.52,-1.45,-0.26,9.64,43.56,-8.5,-0.38,20.7374,-103.4544,X
8.26,19.31,-1.45,-0.28,9.63,43.56,-8.5,-0.38,20.7374,-103.4544,X
8.28,19.45,-1.44,-0.26,9.63,43.56,-8.5,-0.38,20.7372,1.0717,A
8.26,19.49,-1.48,-0.27,9.65,43.56,-8.5,-0.38,20.7372,1.0717,A
8.27,19.26,-1.43,-0.28,9.64,43.56,-8.5,-0.38,20.7372,1.0717,A
8.2,19.38,-1.46,-0.26,9.65,43.56,-8.5,-0.38,20.7372,1.0717,A
8.22,19.5,-1.45,-0.27,9.62,43.56,-8.5,-0.38,20.7372,1.0717,A
8.25,19.35,-1.46,-0.26,9.64,43.56,-8.5,-0.38,20.7372,1.0717,A
8.25,19.41,-1.46,-0.27,9.64,43.56,-8.5,-0.38,20.7372,1.0717,A
8.22,19.54,-1.47,-0.26,9.65,43.56,-8.5,-0.38,20.7372,1.0717,A
8.23,19.34,-1.44,-0.29,9.61,43.56,-8.5,-0.38,20.7372,1.0717,A
8.24,19.38,-1.45,-0.26,9.69,43.56,-8.5,-0.62,20.7372,1.0717,A
8.12,19.49,-1.47,-0.27,9.62,43.56,-8.56,-0.88,20.7372,1.0717,A
8.3,19.31,-1.42,-0.25,9.61,43.56,-8.56,-0.88,20.7372,1.0717,A
8.27,19.44,-1.47,-0.25,9.63,43.56,-8.56,-0.88,20.7371,-103.4543,A
8.19,19.45,-1.47,-0.26,9.63,43.56,-8.56,-0.88,20.7371,-103.4543,A
8.26,19.31,-1.46,-0.26,9.61,43.56,-8.56,-0.88,20.7371,-103.4543,A
8.25,19.39,-1.46,-0.28,9.62,43.56,-8.56,-0.88,20.7371,-103.4543,A
8.22,19.48,-1.45,-0.27,9.67,43.56,-8.56,-0.88,20.7371,-103.4543,A
8.21,19.3,-1.46,-0.26,9.64,43.56,-8.56,-0.88,20.7371,-103.4543,A
8.26,19.44,-1.47,-0.26,9.63,43.56,-8.56,-0.88,20.7371,-103.4543,A
8.25,19.49,-1.47,-0.26,9.67,43.56,-8.56,-0.88,20.7371,-103.4543,A
8.21,19.31,-1.46,-0.27,9.65,43.56,-8.56,-0.88,20.7371,-103.4543,A
8.26,19.42,-1.43,-0.28,9.62,43.56,-8.56,-0.88,20.7371,-103.4543,A
8.21,19.48,-1.46,-0.26,9.65,43.56,-8.56,-0.88,20.7371,-103.4543,A
8.26,19.3,-1.46,-0.25,9.63,43.56,-8.56,-0.88,20.7369,103.4524,A
8.24,19.35,-1.47,-0.27,9.65,43.56,-8.56,-0.88,20.7369,103.4524,A
8.23,19.48,-1.47,-0.27,9.65,43.56,-8.56,-0.88,20.7369,103.4524,A
8.26,19.35,-1.46,-0.28,9.62,43.56,-8.56,-0.88,20.7369,103.4524,A
8.22,19.38,-1.49,-0.27,9.66,43.56,-8.56,-0.88,20.7369,103.4524,A
8.24,19.42,-1.45,-0.27,9.67,43.56,-8.56,-0.88,20.7369,103.4524,A
8.26,19.31,-1.47,-0.24,9.66,43.56,-8.56,-0.88,20.7369,103.4533,A
8.24,19.38,-1.44,-0.24,9.63,43.56,-8.56,-0.88,20.7369,103.4533,A
8.17,19.53,-1.46,-0.24,9.63,43.56,-8.56,-0.88,20.7369,103.4533,A
8.23,19.33,-1.45,-0.26,9.63,43.56,-8.56,-0.88,20.7369,103.4533,A
8.27,19.48,-1.47,-0.26,9.64,43.56,-8.56,-0.88,20.7369,0.0,A
8.1,19.5,-1.45,-0.27,9.63,43.56,-8.56,-0.88,20.7369,0.0,A
8.24,19.28,-1.47,-0.26,9.62,43.56,-8.56,-0.88,20.7369,0.0,A
8.22,19.48,-1.46,-0.26,9.67,43.56,-8.56,-0.88,20.7369,0.0,A
8.15,19.5,-1.47,-0.26,9.65,43.56,-8.56,-0.88,20.7369,0.0,A
8.21,19.28,-1.46,-0.26,9.64,43.56,-8.56,-0.88,20.7369,-103.4546,A
8.23,19.44,-1.44,-0.26,9.66,43.56,-8.56,-0.88,20.7369,-103.4546,A
8.22,19.53,-1.45,-0.26,9.65,43.56,-8.56,-0.88,20.7369,-103.4546,A
8.25,19.31,-1.48,-0.25,9.6,43.56,-8.56,-0.88,2.7369,-103.4547,A
8.28,19.45,-1.48,-0.24,9.66,43.56,-8.56,-0.88,2.7369,-103.4547,A
8.24,19.52,-1.44,-0.27,9.64,43.56,-8.56,-0.88,20.7369,-103.4547,A
8.23,19.28,-1.43,-0.25,9.64,43.56,-8.56,-0.88,20.7369,-103.4547,A
8.25,19.39,-1.47,-0.27,9.62,43.56,-8.56,-0.88,20.7369,-103.4547,A
8.23,19.53,-1.46,-0.24,9.64,43.56,-8.56,-0.88,20.7369,-103.4547,A
8.29,19.31,-1.45,-0.29,9.64,43.56,-8.56,-0.88,20.7369,-103.4547,A
8.16,19.41,-1.46,-0.26,9.65,43.56,-8.56,-0.88,20.7369,-103.4547,X
8.25,19.5,-1.46,-0.28,9.65,43.56,-8.56,-0.88,20.7369,-103.4547,X
8.29,19.33,-1.47,-0.27,9.66,43.56,-8.56,-0.88,20.7369,-103.4547,X
8.21,19.44,-1.45,-0.29,9.64,43.56,-8.56,-0.88,20.7369,-103.4547,X
8.24,19.49,-1.47,-0.26,9.63,43.56,-8.56,-0.88,20.7369,-103.4547,X
8.3,19.33,-1.47,-0.27,9.67,43.56,-8.56,-0.88,20.7369,-103.4547,X
8.29,19.45,-1.45,-0.27,9.64,43.56,-8.56,-0.88,20.7369,-103.4547,X
8.23,19.49,-1.45,-0.26,9.61,43.56,-8.56,-0.88,20.7369,-103.4547,X
8.28,19.31,-1.47,-0.23,9.65,43.56,-8.56,-0.88,20.7369,-103.4547,X
8.28,19.42,-1.45,-0.27,9.66,43.56,-8.56,-0.88,20.7369,-103.4547,X
8.19,19.48,-1.43,-0.27,9.62,43.56,-8.56,-0.88,20.7369,-103.4547,X
8.27,19.3,-1.46,-0.28,9.66,43.56,-8.56,-0.88,20.7369,-103.4547,X
8.29,19.41,-1.46,-0.27,9.64,43.56,-8.56,-0.88,20.737,-103.4546,A
8.22,19.56,-1.47,-0.25,9.65,43.56,-8.56,-0.88,20.737,-103.4546,A
8.25,19.33,-1.47,-0.25,9.62,43.56,-8.56,-0.88,20.737,-103.4546,A
8.22,19.46,-1.46,-0.25,9.61,43.56,-8.56,-0.88,20.737,-103.4546,A
8.24,19.46,-1.92,0.02,9.71,17.06,-9.56,1.0,20.737,-103.4546,A
8.18,19.34,-1.69,-0.26,9.6,10.81,-9.62,-0.06,20.737,-103.4546,A
8.24,19.39,-1.64,-0.24,9.6,16.19,-9.56,-0.62,20.737,-103.4546,A
8.23,19.5,-1.67,-0.24,9.61,16.0,-9.56,-0.81,20.737,-103.4546,A
8.23,19.33,-1.64,-0.22,9.6,15.69,-9.62,-0.81,20.737,-103.4546,A
8.24,19.41,-1.67,-0.21,9.64,15.69,-9.62,-0.81,20.737,-103.4546,A
8.23,19.5,-1.66,-0.24,9.62,15.69,-9.62,-0.81,20.737,-103.4546,A
8.28,19.31,-1.65,-0.24,9.63,15.69,-9.62,-0.81,20.737,-103.4546,A
8.24,19.38,-1.65,-0.23,9.62,15.69,-9.62,-0.81,20.737,-103.4546,A
8.19,19.49,-1.65,-0.22,9.63,15.69,-9.62,-0.81,20.737,-103.4546,A
8.29,19.35,-1.64,-0.22,9.64,15.69,-9.62,-0.81,20.737,-103.4546,A
8.22,19.41,-1.63,-0.24,9.64,15.69,-9.62,-0.81,20.737,-103.4546,A
8.21,19.45,-1.64,-0.24,9.61,15.69,-9.62,-0.81,20.737,-103.4546,A
8.28,19.35,-1.66,-0.25,9.6,15.69,-9.62,-0.81,20.737,-103.4546,A
8.28,19.42,-1.64,-0.25,9.64,15.69,-9.62,-0.81,20.737,-103.4546,A
8.2,19.48,-1.67,-0.23,9.63,15.69,-9.62,-0.81,20.7371,-103.4546,A
8.2,19.28,-1.65,-0.23,9.59,15.69,-9.62,-0.81,20.7371,-103.4546,A
8.27,19.41,-1.61,-0.23,9.64,17.56,-9.38,-0.81,20.7371,-103.4546,A
8.19,19.5,-1.61,-0.21,9.64,17.31,-9.38,-0.81,20.7371,-103.4546,A
8.25,19.34,-1.61,-0.21,9.64,17.19,-9.38,-0.81,20.7371,-103.4546,A
8.28,19.44,-1.6,-0.22,9.62,17.19,-9.38,-0.81,20.7371,-103.4546,A
8.19,19.52,-1.61,-0.21,9.64,17.19,-9.38,-0.81,20.7371,-103.4546,A
8.25,19.33,-1.61,-0.19,9.62,17.19,-9.38,-0.81,20.7371,-103.4546,A
8.24,19.42,-1.62,-0.21,9.63,17.19,-9.38,-0.81,20.7371,-103.4546,A
8.24,19.5,-1.61,-0.23,9.63,17.19,-9.38,-0.81,20.7371,-103.4546,A
8.27,19.37,-1.62,-0.21,9.61,17.19,-9.38,-0.81,20.7371,-103.4546,A
8.24,19.41,-1.61,-0.2,9.64,17.19,-9.38,-0.81,20.7371,-103.4546,A
8.24,19.5,-1.61,-0.22,9.62,17.19,-9.38,-0.81,20.7371,-103.4546,A
8.19,19.33,-1.61,-0.2,9.63,17.19,-9.38,-0.81,20.7371,-103.4546,A
8.24,19.41,-1.6,-0.2,9.63,17.19,-9.38,-0.81,20.7371,-103.4546,A
8.23,19.49,-1.6,-0.23,9.59,17.19,-9.38,-0.81,20.7371,-103.4546,A
8.24,19.33,-1.62,-0.22,9.63,17.19,-9.38,-0.81,20.7371,-103.4546,A
8.26,19.46,-1.61,-0.21,9.67,17.19,-9.38,-0.81,20.7371,-103.4546,A
8.21,19.5,-1.6,-0.19,9.61,17.19,-9.38,-0.81,20.7371,-103.4546,A
8.28,19.3,-1.61,-0.21,9.62,17.19,-9.38,-0.81,20.7371,-103.4546,A
8.26,19.41,-1.6,-0.19,9.63,17.19,-9.38,-0.81,20.7371,-103.4546,A
8.2,19.5,-1.61,-0.19,9.62,17.19,-9.38,-0.81,20.7371,-103.4546,A
8.25,19.34,-1.61,-0.21,9.62,17.19,-9.38,-0.81,20.7371,-103.4546,A
8.2,19.44,-1.62,-0.2,9.6,17.19,-9.38,-0.81,20.7371,-103.4546,A
8.23,19.54,-1.61,-0.19,9.64,17.19,-9.38,-0.81,20.7371,-103.4546,A
8.25,19.3,-1.61,-0.18,9.64,17.19,-9.38,-0.81,20.7371,-103.4546,A
8.26,19.44,-1.58,-0.22,9.61,17.19,-9.38,-0.81,20.7371,-103.4546,A
8.24,19.5,-1.61,-0.22,9.65,17.19,-9.38,-0.81,2.7371,-103.4546,A
8.2,19.28,-1.64,-0.23,9.63,17.19,-9.38,-0.81,2.7371,-103.4546,A
8.25,19.45,-1.64,-0.22,9.63,17.19,-9.38,-0.81,2.7371,-103.4546,A
8.18,19.54,-1.59,-0.19,9.62,17.19,-9.38,-0.81,2.7371,-103.4546,A
8.28,19.38,-1.6,-0.2,9.63,17.19,-9.38,-0.81,2.7371,-103.4546,A
8.24,19.42,-1.62,-0.2,9.63,17.19,-9.38,-0.81,20.7371,-103.4546,A
8.23,19.54,-1.59,-0.2,9.65,17.19,-9.38,-0.81,20.7371,-103.4546,A
8.27,19.28,-1.61,-0.21,9.62,17.19,-9.38,-0.81,20.7371,-103.4546,A
8.2,19.41,-1.61,-0.23,9.65,17.19,-9.38,-0.81,20.7371,-103.4546,A
8.21,19.45,-1.61,-0.2,9.64,17.19,-9.38,-0.81,20.7371,-103.4546,A
8.22,19.31,-1.63,-0.22,9.63,17.19,-9.38,-0.81,20.7371,-103.4546,A
8.26,19.45,-1.61,-0.23,9.62,17.19,-9.38,-0.81,20.7371,-103.4546,A
8.21,19.52,-1.6,-0.2,9.66,17.19,-9.38,-0.81,20.7371,-103.4546,A
8.26,19.39,-1.61,-0.21,9.61,17.19,-9.38,-0.81,20.7371,-103.4546,A
8.27,19.45,-1.61,-0.21,9.61,17.19,-9.38,-0.81,20.7371,-103.4546,A
8.15,19.49,-1.61,-0.21,9.64,17.19,-9.38,-0.81,20.7371,-103.4546,A
8.26,19.3,-1.63,-0.18,9.65,17.19,-9.38,-0.81,20.7371,-103.4546,A
8.26,19.46,-1.6,-0.19,9.63,17.19,-9.38,-0.81,20.7371,-103.4546,A
8.23,19.52,-1.59,-0.21,9.64,17.19,-9.38,-0.81,20.7371,-103.4546,A
8.25,19.34,-1.61,-0.21,9.63,17.19,-9.38,-0.81,20.7371,-103.4546,A
8.23,19.39,-1.6,-0.19,9.65,17.19,-9.38,-0.81,20.7371,-103.4546,A
8.23,19.53,-1.63,-0.2,9.63,17.19,-9.38,-0.81,20.7371,-103.4546,A
8.25,19.35,-1.62,-0.18,9.64,17.19,-9.38,-0.81,20.7371,-103.4546,A
8.24,19.38,-1.61,-0.21,9.63,17.19,-9.38,-0.81,20.7371,-103.4546,A
8.24,19.48,-1.62,-0.21,9.63,17.19,-9.38,-0.81,20.7371,-103.4546,A
8.22,19.39,-1.61,-0.19,9.64,17.19,-9.38,-0.81,20.7371,-103.4546,A
8.25,19.42,-1.6,-0.2,9.63,17.19,-9.38,-0.81,20.7371,-103.4546,A
8.21,19.5,-1.61,-0.2,9.63,17.19,-9.38,-0.81,20.7371,-103.4546,A
8.28,19.3,-1.61,-0.21,9.62,17.19,-9.38,-0.81,20.7371,-103.4546,A
8.24,19.42,-1.61,-0.22,9.63,17.19,-9.38,-0.81,20.7371,-103.4546,A
8.19,19.52,-1.6,-0.22,9.62,17.19,-9.38,-0.81,20.7371,-103.4546,A
8.27,19.33,-1.6,-0.2,9.59,17.19,-9.38,-0.81,20.7371,-103.4546,A
8.26,19.44,-1.61,-0.21,9.63,17.19,-9.38,-0.81,20.7371,-10.6213,A
8.22,19.48,-1.6,-0.2,9.64,17.19,-9.38,-0.81,20.7371,-10.6213,A
8.27,19.35,-1.61,-0.21,9.61,17.19,-9.38,-0.81,20.7371,-10.6213,A
8.25,19.53,-1.59,-0.22,9.63,17.19,-9.38,-0.81,20.7371,-10.6213,A
8.2,19.5,-1.62,-0.21,9.64,17.19,-9.38,-0.81,20.7371,-103.4546,A
8.23,19.33,-1.62,-0.21,9.6,17.19,-9.38,-0.81,20.7371,-103.4546,A
8.28,19.42,-1.62,-0.21,9.62,17.19,-9.38,-0.81,20.7371,-103.4546,A
8.23,19.48,-1.59,-0.22,9.65,17.19,-9.38,-0.81,20.7371,-103.4546,A
8.26,19.31,-1.59,-0.19,9.66,17.19,-9.38,-0.81,20.7371,-103.4546,A
8.26,19.46,-1.62,-0.22,9.61,17.19,-9.38,-0.81,20.7371,-103.4546,A
8.21,19.56,-1.61,-0.18,9.61,17.19,-9.38,-0.81,20.7371,-103.4546,A
8.25,19.27,-1.62,-0.2,9.64,17.19,-9.38,-0.81,20.7371,-103.4546,A
8.24,19.46,-1.59,-0.2,9.65,17.19,-9.38,-0.81,20.7371,-103.4546,A
8.23,19.5,-1.6,-0.22,9.62,17.19,-9.38,-0.81,20.7371,-103.4546,A
8.27,19.35,-1.6,-0.23,9.62,17.19,-9.38,-0.81,20.7371,-103.4546,A
8.2,19.38,-1.61,-0.22,9.65,17.19,-9.38,-0.81,20.7371,-103.4546,A
8.25,19.53,-1.6,-0.21,9.61,17.19,-9.38,-0.81,20.7371,-103.4546,A
8.21,19.34,-1.61,-0.19,9.65,17.19,-9.38,-0.81,20.7371,-103.4546,A
8.24,19.46,-1.61,-0.21,9.6,17.19,-9.38,-0.81,20.7371,-103.4546,A
8.2,19.48,-1.6,-0.19,9.65,17.19,-9.38,-0.81,20.7371,-103.4546,A
8.27,19.35,-1.62,-0.2,9.62,17.19,-9.38,-0.81,20.7371,-103.4546,A
8.26,19.48,-1.59,-0.22,9.6,17.19,-9.38,-0.81,20.7371,-103.4546,A
8.16,19.49,-1.58,-0.21,9.64,17.19,-9.38,-0.81,20.7371,-103.4546,A
8.27,19.33,-1.61,-0.19,9.65,17.19,-9.38,-0.81,20.7371,-103.4546,A
8.25,19.42,-1.6,-0.19,9.63,17.19,-9.38,-0.81,20.7371,-103.4546,A
8.23,19.5,-1.6,-0.2,9.62,17.19,-9.38,-0.81,20.7371,-103.4546,A
8.25,19.34,-1.59,-0.21,9.63,17.19,-9.38,-0.81,20.7371,-103.4546,A
8.21,19.45,-1.59,-0.21,9.59,17.19,-9.38,-0.81,20.7371,-103.4546,A
8.23,19.53,-1.61,-0.23,9.63,17.19,-9.38,-0.81,20.7371,-103.4546,A
8.21,19.33,-1.61,-0.2,9.62,17.19,-9.38,-0.81,20.7371,-103.4546,A
8.27,19.45,-1.59,-0.19,9.63,17.19,-9.38,-0.81,20.7371,-103.4546,A
8.25,19.49,-1.6,-0.2,9.62,17.19,-9.38,-0.81,20.7371,-103.4546,A
8.26,19.34,-1.58,-0.23,9.66,17.19,-9.38,-0.81,20.7371,-103.4546,A
8.24,19.41,-1.6,-0.2,9.62,17.19,-9.38,-0.81,20.7371,-103.4546,A
8.17,19.5,-1.61,-0.19,9.61,17.19,-9.38,-0.81,20.7371,-103.4546,A
8.28,19.37,-1.6,-0.22,9.65,17.19,-9.38,-0.81,20.7371,-103.4546,A
8.24,19.46,-1.62,-0.18,9.65,17.19,-9.38,-0.81,20.7371,-103.4546,A
8.24,19.5,-1.61,-0.2,9.6,17.19,-9.38,-0.81,20.7371,-103.4546,A
8.23,19.3,-1.6,-0.2,9.63,17.19,-9.38,-0.81,20.7371,-103.4546,A
8.24,19.44,-1.59,-0.2,9.65,17.19,-9.38,-0.81,20.7371,-103.4546,A
8.23,19.5,-1.61,-0.19,9.66,17.19,-9.38,-0.81,20.7371,-103.4546,A
8.26,19.34,-1.6,-0.19,9.61,17.19,-9.38,-0.81,20.7371,-103.4546,A
8.27,19.49,-1.6,-0.2,9.63,17.19,-9.38,-0.81,20.7371,-103.4546,A
8.21,19.48,-1.6,-0.2,9.64,17.19,-9.38,-0.81,20.7371,-103.4546,A
8.23,19.34,-1.59,-0.21,9.63,17.19,-9.38,-0.81,20.7371,-103.4546,A
8.27,19.42,-1.61,-0.21,9.62,17.19,-9.38,-0.81,20.7371,-103.4546,X
8.14,19.52,-1.6,-0.22,9.65,17.19,-9.38,-0.81,20.7371,-103.4546,X
8.25,19.37,-1.61,-0.2,9.6,17.19,-9.38,-0.81,20.7371,-103.4546,X
8.26,19.46,-1.6,-0.21,9.64,17.19,-9.38,-0.81,20.7371,-103.4546,X
8.25,19.54,-1.61,-0.19,9.64,17.19,-9.38,-0.81,20.7371,-103.4546,X
8.26,19.35,-1.59,-0.21,9.64,17.19,-9.38,-0.81,20.7371,-103.4546,X
8.23,19.44,-1.61,-0.22,9.61,17.19,-9.38,-0.81,20.7371,-103.4546,X
8.24,19.49,-1.62,-0.19,9.62,17.19,-9.38,-0.81,20.7371,-103.4546,X
8.24,19.34,-1.6,-0.19,9.63,17.19,-9.38,-0.81,20.737,103.4533,A
8.24,19.41,-1.61,-0.21,9.64,17.19,-9.38,-0.81,20.737,103.4533,A
8.21,19.53,-1.6,-0.21,9.61,17.19,-9.38,-0.81,20.737,103.4533,A
8.21,19.35,-1.6,-0.22,9.63,17.19,-9.38,-0.81,20.737,103.4533,A
8.25,19.42,-1.6,-0.21,9.63,17.19,-9.38,-0.81,20.737,103.4533,A
8.18,19.52,-1.6,-0.19,9.65,17.19,-9.38,-0.81,20.737,103.4533,A
8.29,19.33,-1.59,-0.2,9.66,17.19,-9.38,-0.81,20.737,103.4533,A
8.24,19.41,-1.58,-0.21,9.61,17.19,-9.38,-0.81,20.737,103.4533,A
8.21,19.48,-1.6,-0.23,9.62,17.19,-9.38,-0.81,20.737,103.4533,A
8.27,19.35,-1.61,-0.19,9.61,17.19,-9.38,-0.81,20.737,103.4533,A
8.26,19.45,-1.6,-0.22,9.65,17.19,-9.38,-0.81,20.737,103.4533,A
8.2,19.52,-1.62,-0.2,9.61,17.19,-9.38,-0.81,20.737,10.5333,A
8.28,19.34,-1.63,-0.21,9.63,17.19,-9.38,-0.81,20.737,10.5333,A
8.27,19.48,-1.6,-0.19,9.6,17.19,-9.38,-0.81,20.737,10.5333,A
8.2,19.52,-1.6,-0.22,9.61,17.19,-9.38,-0.81,20.737,-103.4546,A
8.2,19.27,-1.6,-0.2,9.64,17.19,-9.38,-0.81,20.737,-103.4546,A
8.28,19.46,-1.63,-0.19,9.61,17.19,-9.38,-0.81,20.737,-103.4546,A
8.18,19.52,-1.59,-0.2,9.65,17.19,-9.38,-0.81,20.737,-103.4546,A
8.24,19.31,-1.59,-0.21,9.65,17.19,-9.38,-0.81,20.737,-103.4546,A
8.2,19.41,-1.59,-0.2,9.62,17.19,-9.38,-0.81,20.737,-103.4546,A
8.23,19.57,-1.61,-0.21,9.62,17.19,-9.38,-0.81,20.737,-103.4546,A
8.25,19.33,-1.63,-0.21,9.61,17.19,-9.38,-0.81,20.737,-103.4546,A
8.23,19.48,-1.62,-0.2,9.62,17.19,-9.38,-0.81,20.737,-103.4546,A
8.23,19.53,-1.58,-0.21,9.65,17.19,-9.38,-0.81,20.737,-103.4546,A
8.27,19.33,-1.59,-0.21,9.64,17.19,-9.38,-0.81,20.737,-103.4546,A
8.25,19.41,-1.59,-0.21,9.65,17.19,-9.38,-0.81,20.737,-103.4546,A
8.23,19.49,-1.61,-0.2,9.65,17.19,-9.38,-0.81,20.737,-103.4546,A
8.25,19.35,-1.6,-0.2,9.64,17.19,-9.38,-0.81,20.737,-103.4546,A
8.23,19.44,-1.64,-0.2,9.63,17.19,-9.38,-0.81,20.737,-103.4546,A
8.16,19.53,-1.6,-0.2,9.6,17.19,-9.38,-0.81,20.737,-103.4546,A
8.26,19.3,-1.61,-0.21,9.63,17.19,-9.38,-0.81,20.737,-103.4546,A
8.25,19.46,-1.6,-0.21,9.65,17.19,-9.38,-0.81,20.737,-103.4545,A
8.19,19.5,-1.61,-0.19,9.64,17.19,-9.38,-0.81,20.737,-103.4545,A
8.27,19.34,-1.61,-0.2,9.59,17.19,-9.38,-0.81,20.737,-103.4545,X
8.22,19.41,-1.59,-0.19,9.62,17.19,-9.38,-0.81,20.737,-103.4545,X
8.23,19.53,-1.62,-0.22,9.62,17.19,-9.38,-0.81,20.737,-103.4545,X
8.17,19.34,-1.61,-0.21,9.61,17.19,-9.38,-0.81,20.737,-103.4545,X
8.26,19.45,-1.61,-0.2,9.61,17.19,-9.38,-0.81,20.737,-103.4545,X
8.25,19.54,-1.59,-0.22,9.61,17.19,-9.38,-0.81,20.737,-103.4545,X
8.18,19.33,-1.6,-0.19,9.62,17.19,-9.38,-0.81,20.737,-103.4545,X
8.28,19.5,-1.6,-0.21,9.62,17.19,-9.38,-0.81,20.737,-103.4545,X
8.23,19.53,-1.59,-0.2,9.65,17.19,-9.38,-0.81,20.737,-103.4546,A
8.26,19.28,-1.61,-0.21,9.63,17.19,-9.38,-0.81,20.737,-103.4546,A
8.23,19.46,-1.6,-0.21,9.62,17.19,-9.38,-0.81,20.737,-103.4546,A
8.19,19.52,-1.6,-0.2,9.61,17.19,-9.38,-0.81,20.737,-103.4546,A
8.27,19.33,-1.61,-0.2,9.62,17.19,-9.38,-0.81,2.0703,-103.4546,A
8.22,19.39,-1.61,-0.21,9.65,17.19,-9.38,-0.81,2.0703,-103.4546,A
8.23,19.52,-1.63,-0.21,9.58,17.19,-9.38,-0.81,2.0703,-103.4546,A
8.26,19.33,-1.59,-0.21,9.65,17.19,-9.38,-0.81,2.0703,-103.4546,A
8.19,19.46,-1.61,-0.21,9.61,17.19,-9.38,-0.81,2.0703,-103.4546,A
8.2,19.5,-1.59,-0.18,9.64,17.19,-9.38,-0.81,20.737,-103.4546,A
8.23,19.34,-1.61,-0.21,9.62,17.19,-9.38,-0.81,20.7369,-103.4546,A
8.27,19.52,-1.59,-0.19,9.62,17.19,-9.38,-0.81,20.737,-103.4546,A
8.14,19.5,-1.63,-0.2,9.63,17.19,-9.38,-0.81,20.737,-103.4546,A
8.28,19.35,-1.6,-0.2,9.64,17.19,-9.38,-0.81,20.737,-103.4546,A
8.27,19.45,-1.61,-0.2,9.61,17.19,-9.38,-0.81,20.7369,-1032728.125,A
8.19,19.52,-1.61,-0.2,9.61,17.19,-9.38,-0.81,20.7369,-1032728.125,A
8.23,19.28,-1.59,-0.2,9.64,17.19,-9.38,-0.81,20.7369,-1032728.125,A
8.25,19.44,-1.61,-0.21,9.6,17.19,-9.38,-0.81,20.7369,-1032728.125,A
8.22,19.46,-1.6,-0.19,9.63,17.19,-9.38,-0.81,20.7369,-1032728.125,A
8.23,19.33,-1.6,-0.2,9.65,17.19,-9.38,-0.81,20.7369,-1032728.125,A
8.22,19.45,-1.6,-0.22,9.65,17.19,-9.38,-0.81,20.7369,-1032728.125,A
8.23,19.44,-1.61,-0.21,9.63,17.19,-9.38,-0.81,20.7369,-1032728.125,A
8.2,19.27,-1.62,-0.2,9.67,17.19,-9.38,-0.81,20.7369,-1032728.125,X
8.24,19.38,-1.59,-0.21,9.6,17.19,-9.38,-0.81,20.7369,-1032728.125,X
8.24,19.49,-1.6,-0.2,9.63,17.19,-9.38,-0.81,20.7369,-1032728.125,X
8.22,19.28,-1.61,-0.19,9.65,17.19,-9.38,-0.81,20.7369,-1032728.125,X
8.24,19.37,-1.61,-0.2,9.62,17.19,-9.38,-0.81,20.7369,-1032728.125,X
8.23,19.49,-1.6,-0.18,9.63,17.19,-9.38,-0.81,20.7369,-1032728.125,X
8.28,19.34,-1.61,-0.2,9.61,17.19,-9.38,-0.81,20.7369,-1032728.125,X
8.19,19.41,-1.61,-0.2,9.62,17.19,-9.38,-0.81,20.7369,-1032728.125,X
8.23,19.5,-1.61,-0.2,9.62,17.19,-9.38,-0.81,20.7369,-1032728.125,X
8.27,19.28,-1.6,-0.22,9.63,17.19,-9.38,-0.81,20.7369,-1032728.125,X
8.21,19.41,-1.61,-0.19,9.65,17.19,-9.38,-0.81,20.7369,-1032728.125,X
8.21,19.44,-1.6,-0.2,9.64,17.19,-9.38,-0.81,20.7369,-1032728.125,X
8.27,19.34,-1.61,-0.21,9.64,17.19,-9.38,-0.81,20.7369,-1032728.125,X
8.27,19.46,-1.6,-0.2,9.66,17.19,-9.38,-0.81,20.7369,-1032728.125,X
8.23,19.45,-1.6,-0.21,9.64,17.19,-9.38,-0.81,20.7369,-1032728.125,X
8.19,19.31,-1.59,-0.22,9.64,17.19,-9.38,-0.81,20.7369,-1032728.125,X
8.25,19.42,-1.6,-0.18,9.72,17.19,-9.38,-0.81,20.7369,-1032728.125,X
8.19,19.41,-1.63,-0.21,9.63,17.19,-9.38,-0.81,20.7369,-1032728.125,X
8.24,19.3,-1.62,-0.21,9.66,17.19,-9.38,-0.81,20.7369,-1032728.125,X
8.26,19.45,-1.62,-0.2,9.6,17.19,-9.38,-0.81,204422.0,-103.4548,A
8.11,19.48,-1.59,-0.21,9.63,17.19,-9.38,-0.81,204422.0,-103.4548,A
8.21,19.27,-1.61,-0.19,9.63,17.19,-9.38,-0.81,204422.0,-103.4548,A
8.18,19.42,-1.59,-0.22,9.6,17.19,-9.38,-0.81,204422.0,-103.4548,A
8.22,19.48,-1.61,-0.2,9.63,17.19,-9.38,-0.81,204422.0,-103.4548,A
8.14,19.31,-1.61,-0.2,9.63,17.19,-9.38,-0.81,204422.0,-103.4548,A
8.14,19.37,-1.6,-0.19,9.58,17.19,-9.38,-0.81,204422.0,-103.4548,A
8.19,19.44,-1.6,-0.22,9.64,17.19,-9.38,-0.81,204422.0,-103.4548,A
8.18,19.28,-1.65,-0.21,9.62,17.19,-9.38,-0.81,204422.0,-103.4548,A
8.19,19.42,-1.61,-0.21,9.62,17.19,-9.38,-0.81,204422.0,-103.4548,A
8.2,19.44,-1.6,-0.21,9.64,17.19,-9.38,-0.81,20.7369,-103.4548,A
8.26,19.31,-1.63,-0.21,9.62,17.19,-9.38,-0.81,20.7369,-103.4548,A
8.23,19.39,-1.62,-0.21,9.63,17.19,-9.38,-0.81,20.7369,-103.4548,A
8.21,19.5,-1.61,-0.2,9.63,17.19,-9.38,-0.81,20.7369,-103.4548,A
8.28,19.34,-1.61,-0.2,9.62,17.19,-9.38,-0.81,20.7369,-103.4548,A
8.22,19.45,-1.61,-0.21,9.64,17.19,-9.38,-0.81,20.7369,-103.4548,A
8.2,19.5,-1.6,-0.21,9.62,17.19,-9.38,-0.81,20.7369,-103.4548,A
8.26,19.31,-1.6,-0.22,9.63,17.19,-9.38,-0.81,20.7369,-103.4548,A
8.23,19.48,-1.6,-0.18,9.62,17.19,-9.38,-0.81,20.7369,-103.4548,A
8.21,19.49,-1.6,-0.2,9.65,17.19,-9.38,-0.81,20.7369,-103.4548,A
8.25,19.35,-1.61,-0.22,9.62,17.19,-9.38,-0.81,20.7369,-103.4548,A
8.25,19.45,-1.63,-0.22,9.63,17.19,-9.38,-0.81,20.7369,-103.4548,A
8.15,19.56,-1.59,-0.21,9.61,17.19,-9.38,-0.81,20.7369,-103.4548,A
8.2,19.27,-1.6,-0.21,9.65,17.19,-9.38,-0.81,20.7369,-103.4548,A
8.25,19.44,-1.62,-0.2,9.62,17.19,-9.38,-0.81,20.7369,-103.4548,A
8.15,19.52,-1.61,-0.21,9.61,17.19,-9.38,-0.81,20.7369,-103.4548,A
8.23,19.37,-1.64,-0.2,9.62,17.19,-9.38,-0.81,20.7369,-103.4548,A
8.24,19.45,-1.61,-0.2,9.66,17.19,-9.38,-0.81,20.7369,-103.4548,A
8.23,19.5,-1.59,-0.2,9.63,17.19,-9.38,-0.81,20.7369,-103.4548,A
8.23,19.34,-1.6,-0.21,9.63,17.19,-9.38,-0.81,20.7369,-103.4548,A
8.19,19.44,-1.61,-0.21,9.64,17.19,-9.38,-0.81,20.7369,-103.4548,A
8.22,19.52,-1.61,-0.19,9.65,17.19,-9.38,-0.81,20.7369,-103.4548,A
8.27,19.33,-1.59,-0.21,9.62,17.19,-9.38,-0.81,20.7369,-103.4548,A
8.24,19.41,-1.61,-0.19,9.63,17.19,-9.38,-0.81,20.7369,-103.4548,A
8.23,19.5,-1.6,-0.21,9.64,17.19,-9.38,-0.81,20.7369,-103.4548,A
8.26,19.35,-1.6,-0.19,9.61,17.19,-9.38,-0.81,20.7369,-103.4548,A
8.24,19.42,-1.6,-0.21,9.62,17.19,-9.38,-0.81,20.7369,-103.4548,A
8.19,19.5,-1.6,-0.21,9.65,17.19,-9.38,-0.81,20.7369,-103.4548,A
8.26,19.33,-1.61,-0.21,9.63,17.19,-9.38,-0.81,20.7369,-103.4548,A
8.2,19.48,-1.59,-0.22,9.6,17.19,-9.38,-0.81,20.7369,-103.4548,A
8.19,19.5,-1.6,-0.2,9.61,17.19,-9.38,-0.81,20.7369,-103.4548,A
8.26,19.34,-1.61,-0.2,9.64,17.19,-9.38,-0.81,20.7369,-103.4548,A
8.22,19.49,-1.6,-0.18,9.62,17.19,-9.38,-0.81,20.7369,-103.4548,A
8.19,19.52,-1.6,-0.21,9.65,17.19,-9.38,-0.81,20.7369,-103.4548,A
8.23,19.34,-1.61,-0.2,9.62,17.19,-9.38,-0.81,20.7369,-103.4548,A
8.26,19.42,-1.6,-0.19,9.65,17.19,-9.38,-0.81,20.7369,-103.4548,A
8.22,19.54,-1.6,-0.2,9.64,17.19,-9.38,-0.81,20.7369,-103.4548,A
8.19,19.31,-1.61,-0.21,9.64,17.19,-9.38,-0.81,20.7369,-103.4548,A
8.26,19.44,-1.6,-0.2,9.64,17.19,-9.38,-0.81,20.7369,-103.4548,A
8.2,19.52,-1.62,-0.2,9.62,17.19,-9.38,-0.81,20.7369,-103.4548,A
8.25,19.34,-1.6,-0.19,9.64,17.19,-9.38,-0.81,20.7369,-103.4548,A
8.23,19.46,-1.6,-0.19,9.65,17.19,-9.38,-0.81,20.7369,-103.4548,A
8.19,19.53,-1.62,-0.21,9.62,17.19,-9.38,-0.81,20.7369,-103.4548,A
8.27,19.38,-1.6,-0.19,9.64,17.19,-9.38,-0.81,20.7369,-103.4548,A
8.21,19.46,-1.63,-0.19,9.62,17.19,-9.38,-0.81,20.7369,-103.4548,A
8.23,19.54,-1.61,-0.21,9.64,17.19,-9.38,-0.81,20.7369,-103.4548,A
8.24,19.33,-1.59,-0.19,9.65,17.19,-9.38,-0.81,20.7369,-103.4548,A
8.24,19.44,-1.61,-0.2,9.64,17.19,-9.38,-0.81,20.7369,-103.4548,A
